Folder: Streamlit_cement/data (part 8)

File: Z_s10_1.txt
Index	Frequency (Hz)	Z' (Ω)	-Z'' (Ω)	Z (Ω)	-Phase (°)	Time (s)
1	1000000	2952.2	3484.95	4567.32	49.7311	26.4446
2	794330	3651.55	3513.31	5067.27	43.8947	30.2667
3	630960	4590.8	3394.32	5709.37	36.4782	36.3638
4	501190	5387.94	3221.81	6277.74	30.878	46.271
5	398110	6216.61	2967.72	6888.66	25.5191	51.0631
6	316230	6733.49	2651.59	7236.77	21.4941	55.0201
7	251190	7008.21	2265.93	7365.42	17.9173	57.7172
8	199530	7357.28	2011.22	7627.23	15.2891	61.1593
9	158490	7634.56	1768.3	7836.67	13.0408	64.6563
10	125890	7860.64	1544.96	8011.03	11.1194	68.2334
11	100000	8040.29	1343.03	8151.69	9.48302	71.2304
12	79433	8190.15	1163.58	8272.39	8.08593	74.9525
13	63096	8312.52	1004.63	8373.01	6.89117	78.9696
14	50119	8407.84	865.551	8452.27	5.87765	82.6366
15	39811	8493.6	743.49	8526.08	5.00266	86.4787
16	31623	8553.87	639.311	8577.73	4.27431	90.8108
17	25119	8607.99	560.032	8626.18	3.7224	94.4429
18	19953	8658.07	492.074	8672.04	3.25286	98.5749
19	15849	8702.92	435.101	8713.79	2.86211	103.062
20	12589	8740.07	389.079	8748.73	2.54894	106.054
21	10000	8770.95	352.131	8778.01	2.29905	108.821
22	7943.3	8805.01	323.949	8810.97	2.10705	112.093
23	6309.6	8837.18	301.972	8842.34	1.95707	114.915
24	5011.9	8870.29	285.241	8874.88	1.84182	118.447
25	3981.1	8898.09	272.927	8902.28	1.75686	122.149
26	3162.3	8928.29	265.752	8932.25	1.70491	126.521
27	2511.9	8963.55	261.114	8967.35	1.66859	130.679
28	1995.3	8996.08	260.247	8999.84	1.65704	134.456
29	1584.9	9025.3	261.672	9029.09	1.66072	136.818
30	1258.9	9059.95	268.137	9063.91	1.69522	140.105
31	1000	9094.14	275.088	9098.3	1.73261	143.062
32	794.33	9128.42	286.207	9132.9	1.79583	146.269
33	630.96	9164.38	299.587	9169.27	1.87236	150.141
34	501.19	9194.65	316.088	9200.08	1.96891	152.923
35	398.11	9242.98	337.855	9249.15	2.09338	156.105
36	316.23	9287.33	361.573	9294.37	2.22951	158.162
37	251.19	9333.56	391.453	9341.77	2.4016	160.474
38	199.53	9374.07	424.341	9383.67	2.59187	162.331
39	158.49	9432.63	465.31	9444.1	2.8241	164.368
40	125.89	9487.61	510.017	9501.3	3.07704	166.895
41	100	9552.08	561.934	9568.59	3.36674	169.317
42	79.433	9623.43	619.033	9643.32	3.68051	172.234
43	63.096	9702.19	674.664	9725.61	3.97779	176.561
44	50.119	9792.29	746.792	9820.73	4.36112	179.088
45	39.811	9896.42	832.806	9931.4	4.81023	181.36
46	31.623	10013.4	916.59	10055.3	5.23006	183.618
47	25.119	10132.3	1011.39	10182.7	5.70029	186.3
48	19.953	10272.6	1115.98	10333.1	6.20005	189.677
49	15.849	10424.3	1229.05	10496.6	6.72424	193.399
50	12.589	10585.8	1340.81	10670.4	7.21867	196.956
51	10	10751.3	1462.17	10850.2	7.74468	199.633
52	7.9433	10934.4	1602.24	11051.2	8.33634	202.39
53	6.3096	11131.2	1755.78	11268.9	8.96366	204.982
54	5.0119	11333.3	1931.49	11496.7	9.67176	208.144
55	3.9811	11550.6	2140.19	11747.2	10.4972	211.491
56	3.1623	11769.6	2387.2	12009.3	11.4656	215.628
57	2.5119	12006.5	2680.93	12302.2	12.5871	219.34
58	1.9953	12257.5	3036.43	12628	13.9132	223.402
59	1.5849	12524.3	3456.95	12992.7	15.4305	227.464
60	1.2589	12822.8	3964.21	13421.6	17.1792	233.816
61	1	13142.1	4589.76	13920.6	19.2512	238.274
62	0.79433	13502.7	5349.52	14523.8	21.6126	242.141
63	0.63096	13911.2	6265.35	15257	24.2459	247.383
64	0.50119	14351.4	7324.01	16112.2	27.0368	252.655
65	0.39811	14806.1	8645.93	17145.7	30.2825	258.667
66	0.31623	15464.5	10278.6	18568.8	33.6102	266.649
67	0.25119	16160.4	12252	20279.8	37.1676	273.226
68	0.19953	16826.1	14572.2	22259	40.8941	280.688
69	0.15849	17811.2	17462.8	24943.7	44.4342	312.132
70	0.12589	18825.8	21007.3	28208.4	48.1346	322.134
71	0.1	20083.3	25079.1	32129.4	51.3124	335.456

File: Z_s11_1.2.txt
Index	Frequency (Hz)	Z' (Ω)	-Z'' (Ω)	Z (Ω)	-Phase (°)	Time (s)
1	1000000	2703.79	1842.2	3271.72	34.2682	20.0735
2	794330	2981.21	1691.52	3427.66	29.5704	21.7955
3	630960	3282.46	1569.44	3638.37	25.5539	23.5626
4	501190	3570.53	1475.11	3863.25	22.4472	25.4946
5	398110	3884.03	1328.61	4104.99	18.8843	27.1266
6	316230	4115.23	1217.38	4291.52	16.4794	28.8137
7	251190	4229.56	1050.32	4358.02	13.946	30.4857
8	199530	4409.01	947.447	4509.66	12.1278	32.2477
9	158490	4556.59	842.213	4633.78	10.472	33.8698
10	125890	4671.13	739.454	4729.29	8.99546	35.5968
11	100000	4765.2	644.149	4808.54	7.69845	37.2088
12	79433	4839.43	558.033	4871.5	6.5777	38.9358
13	63096	4898.55	481.136	4922.12	5.60961	40.4179
14	50119	4945.72	413.611	4962.99	4.78052	42.2149
15	39811	4983.57	354.983	4996.19	4.07434	43.8419
16	31623	5015.03	305.492	5024.32	3.48588	45.664
17	25119	5040	266.514	5047.05	3.02696	47.336
18	19953	5062.63	233.677	5068.02	2.64274	49.113
19	15849	5079.29	206.86	5083.5	2.33215	50.7401
20	12589	5096.9	185.053	5100.26	2.07932	52.5221
21	10000	5115.18	168.021	5117.94	1.88135	54.2541
22	7943.3	5128.22	154.608	5130.56	1.72686	55.8412
23	6309.6	5141.13	144.68	5143.17	1.61198	57.6382
24	5011.9	5155.82	137.49	5157.65	1.52754	59.4802
25	3981.1	5170.73	132.051	5172.42	1.46291	61.1023
26	3162.3	5184.95	129.473	5186.57	1.43043	62.6993
27	2511.9	5199.78	128.319	5201.36	1.41364	64.6113
28	1995.3	5214.09	128.602	5215.67	1.41287	66.1834
29	1584.9	5229.14	130.84	5230.78	1.43331	67.9254
30	1258.9	5244.45	134.889	5246.19	1.47334	69.4474
31	1000	5260.1	139.895	5261.96	1.52345	71.1594
32	794.33	5274.91	146.955	5276.96	1.5958	72.8065
33	630.96	5296.75	155.8	5299.04	1.68483	74.5535
34	501.19	5314.88	165.917	5317.47	1.78804	76.2755
35	398.11	5335.53	179.091	5338.54	1.92246	78.1026
36	316.23	5356.01	193.497	5359.51	2.06903	79.8596
37	251.19	5378.84	211.142	5382.99	2.24794	81.7516
38	199.53	5404.36	231.951	5409.33	2.45759	83.2187
39	158.49	5425.97	256.556	5432.04	2.7071	85.1457
40	125.89	5456.69	285.375	5464.15	2.99374	86.7527
41	100	5489.44	318.054	5498.65	3.31596	88.5448
42	79.433	5525.82	356.207	5537.29	3.68831	90.2718
43	63.096	5568.87	400.649	5583.26	4.11502	92.1738
44	50.119	5619.24	450.661	5637.28	4.58529	94.1709
45	39.811	5679.13	503.632	5701.42	5.0678	96.1579
46	31.623	5743.92	561.958	5771.35	5.58776	98.1199
47	25.119	5822.35	627.034	5856.02	6.14674	100.242
48	19.953	5906.64	697.153	5947.64	6.73141	102.434
49	15.849	5997.48	769.185	6046.61	7.30836	104.741
50	12.589	6099.5	848.894	6158.29	7.92321	107.063
51	10	6205.73	931.164	6275.2	8.53352	110.51
52	7.9433	6325.42	1024.56	6407.86	9.20062	113.172
53	6.3096	6443.37	1129.01	6541.53	9.93851	115.904
54	5.0119	6575.79	1246.42	6692.88	10.7329	118.656
55	3.9811	6707.37	1384.66	6848.8	11.6642	121.633
56	3.1623	6849.3	1545.44	7021.49	12.715	124.51
57	2.5119	7002.96	1739.32	7215.72	13.9482	127.387
58	1.9953	7161.21	1964.93	7425.89	15.3435	130.455
59	1.5849	7339.64	2247.29	7675.98	17.0238	133.647
60	1.2589	7521.4	2576.63	7950.5	18.9101	137.029
61	1	7720.05	2983.8	8276.61	21.1315	140.821
62	0.79433	7951.49	3463.99	8673.26	23.5399	144.508
63	0.63096	8194.77	4042.04	9137.41	26.2547	148.435
64	0.50119	8438.64	4764.61	9690.83	29.4499	152.422
65	0.39811	8727.91	5682.37	10414.7	33.0664	157.199
66	0.31623	9042.79	6769.62	11296	36.8193	162.386
67	0.25119	9484.27	8082.58	12461.1	40.438	168.198
68	0.19953	9874.19	9750.05	13876.7	44.6376	174.875
69	0.15849	10356	11699.8	15624.7	48.4864	182.803
70	0.12589	11002.5	14209.1	17970.9	52.2484	191.53
71	0.1	11725.2	17043.9	20687.6	55.4744	201.897

File: Z_s11_1.3.txt
Index	Frequency (Hz)	Z' (Ω)	-Z'' (Ω)	Z (Ω)	-Phase (°)	Time (s)
1	1000000	2775.7	1944.4	3388.98	35.0116	21.6045
2	794330	3055.35	1769.95	3530.98	30.0835	23.2516
3	630960	3388.86	1665.46	3776	26.1718	25.2336
4	501190	3703.53	1563.44	4020.01	22.8869	26.9906
5	398110	4034.78	1413.64	4275.26	19.3087	28.9727
6	316230	4278.66	1296.87	4470.88	16.8622	30.7697
7	251190	4404.63	1121.63	4545.2	14.2866	32.5367
8	199530	4602.1	1013.36	4712.35	12.4181	34.2338
9	158490	4753.14	899.815	4837.56	10.7198	36.1208
10	125890	4879.16	790.582	4942.8	9.20378	37.9378
11	100000	4977.96	688.623	5025.37	7.87598	39.8649
12	79433	5058.06	596.16	5093.08	6.72206	41.5969
13	63096	5119.67	513.782	5145.38	5.73071	43.3839
14	50119	5170.77	441.812	5189.61	4.88373	45.091
15	39811	5213.77	378.86	5227.51	4.15611	46.748
16	31623	5241.54	325.132	5251.62	3.5495	48.52
17	25119	5270.31	283.552	5277.93	3.07964	50.152
18	19953	5291.32	248.116	5297.13	2.6847	51.9891
19	15849	5313.05	218.969	5317.56	2.36001	53.5711
20	12589	5332.04	195.334	5335.61	2.09803	55.4531
21	10000	5347	176.569	5349.91	1.89133	57.0952
22	7943.3	5363.14	162.04	5365.59	1.73058	58.8672
23	6309.6	5379.43	150.913	5381.55	1.60694	60.4392
24	5011.9	5394.57	142.788	5396.46	1.5162	62.3363
25	3981.1	5406.76	136.6	5408.48	1.44725	63.9983
26	3162.3	5421.7	132.805	5423.33	1.40318	65.8153
27	2511.9	5433.59	130.893	5435.17	1.37996	67.4924
28	1995.3	5450.69	130.666	5452.26	1.37326	69.2644
29	1584.9	5465.8	132.037	5467.39	1.38382	70.8464
30	1258.9	5483.59	135.562	5485.26	1.41614	72.5285
31	1000	5498.01	140.029	5499.79	1.45895	74.2455
32	794.33	5514.76	146.764	5516.71	1.52445	76.0475
33	630.96	5531.56	154.178	5533.7	1.59656	77.6646
34	501.19	5551.2	164.417	5553.63	1.69651	79.4066
35	398.11	5570.06	176.042	5572.84	1.81024	81.0236
36	316.23	5590.56	190.297	5593.8	1.94954	82.8207
37	251.19	5609.08	208.001	5612.94	2.12372	84.6727
38	199.53	5632.81	227.627	5637.41	2.31411	86.2547
39	158.49	5659.14	251.568	5664.73	2.54531	88.1268
40	125.89	5686.23	280.497	5693.14	2.82407	89.8838
41	100	5717.8	313.171	5726.37	3.13503	91.6858
42	79.433	5753.8	349.982	5764.44	3.4808	93.2428
43	63.096	5797.69	396.359	5811.22	3.91094	95.2599
44	50.119	5848.99	443.79	5865.81	4.33898	97.1569
45	39.811	5902.66	498.378	5923.66	4.8262	99.124
46	31.623	5968.6	557.391	5994.57	5.33522	101.171
47	25.119	6042.91	621.375	6074.78	5.87092	103.103
48	19.953	6124.5	692.23	6163.49	6.44857	105.425
49	15.849	6220.56	767.197	6267.69	7.03093	107.592
50	12.589	6322.31	845.21	6378.56	7.61454	110.839
51	10	6428.97	928.867	6495.72	8.22129	113.331
52	7.9433	6545.47	1020.38	6624.53	8.8606	115.998
53	6.3096	6671.79	1123.72	6765.76	9.56048	118.555
54	5.0119	6796.28	1240.05	6908.49	10.3404	121.377
55	3.9811	6929.94	1376.08	7065.24	11.2311	124.264
56	3.1623	7075.04	1534.5	7239.54	12.2373	127.206
57	2.5119	7224.24	1722.6	7426.78	13.4116	130.044
58	1.9953	7388.63	1946.16	7640.64	14.7565	133.076
59	1.5849	7560.88	2215.5	7878.79	16.3317	136.328
60	1.2589	7747.84	2545.02	8155.13	18.1843	139.745
61	1	7943.42	2930.33	8466.69	20.2491	143.462
62	0.79433	8177.93	3410.14	8860.45	22.6358	147.059
63	0.63096	8403.15	3966.12	9292.09	25.2664	150.736
64	0.50119	8659.3	4671.7	9839.12	28.3469	154.833
65	0.39811	8928.56	5562.34	10519.4	31.9222	159.68
66	0.31623	9240.69	6621.31	11368	35.6231	164.872
67	0.25119	9675.65	7951.27	12523.6	39.4128	170.599
68	0.19953	10038.9	9542.93	13850.9	43.549	177.236
69	0.15849	10508	11487.8	15568.8	47.5506	184.979
70	0.12589	11104.6	13906.6	17796.3	51.3922	194.016
71	0.1	11866.4	16762.2	20537.4	54.7043	204.538

File: Z_s11_1.4.txt
Index	Frequency (Hz)	Z' (Ω)	-Z'' (Ω)	Z (Ω)	-Phase (°)	Time (s)
1	1000000	2857.51	2090.36	3540.48	36.1866	21.0495
2	794330	3200.78	1911.69	3728.21	30.848	22.7815
3	630960	3542.3	1798.68	3972.8	26.9202	24.5886
4	501190	3891.88	1685.59	4241.22	23.4176	26.5156
5	398110	4267.68	1536.76	4535.93	19.8036	28.2276
6	316230	4536.54	1410.91	4750.88	17.2762	29.9897
7	251190	4676.18	1233.13	4836.04	14.7728	31.6117
8	199530	4887.86	1115.05	5013.43	12.8507	33.4637
9	158490	5058.91	992.143	5155.28	11.0959	35.0558
10	125890	5199.42	872.596	5272.14	9.52691	36.8928
11	100000	5310.49	760.48	5364.66	8.14954	38.4948
12	79433	5399.05	658.795	5439.09	6.95688	40.2469
13	63096	5470.67	568.231	5500.11	5.92996	41.8439
14	50119	5527.47	488.534	5549.01	5.05085	43.6559
15	39811	5571.3	417.735	5586.94	4.288	45.2779
16	31623	5606.55	358.57	5618	3.6594	47.105
17	25119	5634.91	312.413	5643.57	3.17336	48.702
18	19953	5661.5	272.957	5668.08	2.76025	50.654
19	15849	5684.39	240.448	5689.47	2.42215	52.2511
20	12589	5703.64	213.556	5707.63	2.14427	54.0281
21	10000	5721.94	191.924	5725.15	1.92109	55.7051
22	7943.3	5739.65	175.854	5742.35	1.7549	57.4922
23	6309.6	5757.82	163.017	5760.13	1.62174	59.0842
24	5011.9	5770.61	152.833	5772.63	1.51711	60.8912
25	3981.1	5785.44	146.08	5787.29	1.44639	62.7083
26	3162.3	5801.97	141.208	5803.68	1.39418	64.5803
27	2511.9	5816.02	137.952	5817.66	1.35876	66.2573
28	1995.3	5833.82	137.383	5835.44	1.34903	67.9994
29	1584.9	5849.88	138.241	5851.52	1.35373	69.7064
30	1258.9	5866.22	140.358	5867.9	1.37063	71.4784
31	1000	5881.02	144.963	5882.81	1.41201	73.1405
32	794.33	5898.56	151.323	5900.5	1.46956	74.8575
33	630.96	5916.94	158.653	5919.06	1.53593	76.4895
34	501.19	5939.4	168.271	5941.78	1.62283	78.1316
35	398.11	5958.05	179.653	5960.76	1.72711	79.8486
36	316.23	5980.97	194.314	5984.13	1.86081	81.5156
37	251.19	6001.35	210.789	6005.05	2.01161	83.4076
38	199.53	6022.89	230.401	6027.3	2.19074	84.9247
39	158.49	6049.23	254.381	6054.58	2.40797	86.5917
40	125.89	6078.94	283.524	6085.55	2.67036	88.2437
41	100	6109.06	315.346	6117.19	2.95495	90.0258
42	79.433	6146.48	353.096	6156.61	3.28785	91.6778
43	63.096	6184.33	397.999	6197.12	3.68226	93.6648
44	50.119	6237.1	443.52	6252.85	4.06746	95.6119
45	39.811	6297.47	503.447	6317.56	4.57075	97.4439
46	31.623	6360.21	563.046	6385.08	5.059	99.3659
47	25.119	6434.62	631.069	6465.49	5.60132	101.198
48	19.953	6519.18	704.095	6557.1	6.16425	103.385
49	15.849	6618.38	780.878	6664.29	6.729	105.632
50	12.589	6722.57	861	6777.48	7.29848	108.264
51	10	6833.44	947.188	6898.77	7.89153	110.761
52	7.9433	6953.9	1041.13	7031.4	8.51498	113.333
53	6.3096	7078.76	1146.1	7170.94	9.19677	116.145
54	5.0119	7209.68	1266.16	7320.02	9.96065	118.817
55	3.9811	7353.3	1403.42	7486.03	10.8053	121.709
56	3.1623	7504.69	1563.47	7665.82	11.7682	124.491
57	2.5119	7662.65	1751.43	7860.27	12.8747	127.198
58	1.9953	7827.43	1978.8	8073.68	14.1873	130.311
59	1.5849	8010.49	2247.46	8319.8	15.6723	133.418
60	1.2589	8198.97	2568.35	8591.83	17.3933	136.735
61	1	8403.91	2962.1	8910.65	19.4159	140.497
62	0.79433	8639.61	3446.37	9301.63	21.7472	144.079
63	0.63096	8892.75	4011.12	9755.51	24.278	147.871
64	0.50119	9150.34	4722.18	10297	27.2967	151.993
65	0.39811	9417.89	5569.87	10941.7	30.6007	156.76
66	0.31623	9738.22	6624.43	11777.8	34.2255	161.887
67	0.25119	10101.3	7991.3	12880.1	38.3481	167.749
68	0.19953	10542.8	9507.12	14196.3	42.043	174.351
69	0.15849	11047.2	11432.5	15897.9	45.982	182.088
70	0.12589	11550.5	13844.5	18030	50.1617	191.156
71	0.1	12267	16942.9	20917.5	54.0946	201.663

File: Z_s11_1.5.txt
Index	Frequency (Hz)	Z' (Ω)	-Z'' (Ω)	Z (Ω)	-Phase (°)	Time (s)
1	1000000	2813.18	2133.56	3530.73	37.1772	20.2325
2	794330	3121.55	1916.63	3663	31.5499	21.9395
3	630960	3543.36	1859.36	4001.57	27.6881	23.6966
4	501190	3906.84	1740.78	4277.12	24.0164	25.4136
5	398110	4285.52	1596.07	4573.09	20.427	27.4106
6	316230	4563.76	1459.12	4791.33	17.73	29.1427
7	251190	4710.32	1267.44	4877.86	15.0603	30.9247
8	199530	4928.55	1142.94	5059.34	13.0563	32.6867
9	158490	5100.46	1014.63	5200.4	11.251	34.3888
10	125890	5238.08	890.52	5313.24	9.64854	35.9308
11	100000	5352.28	775.104	5408.11	8.24014	37.8278
12	79433	5441.41	670.741	5482.6	7.02717	39.4399
13	63096	5513.63	577.848	5543.83	5.98296	41.2769
14	50119	5567.12	495.953	5589.17	5.09081	42.9739
15	39811	5614.87	424.915	5630.93	4.3277	44.881
16	31623	5648.53	363.742	5660.23	3.68453	46.573
17	25119	5677.77	316.168	5686.57	3.18724	48.39
18	19953	5705.29	276.397	5711.98	2.77357	49.982
19	15849	5727.55	242.969	5732.71	2.42909	51.6491
20	12589	5743	215.637	5747.05	2.15031	53.4211
21	10000	5761.57	194.12	5764.84	1.9297	55.0431
22	7943.3	5781.09	176.668	5783.79	1.75039	56.8902
23	6309.6	5795.09	163.581	5797.4	1.61689	58.5522
24	5011.9	5811.73	153.232	5813.75	1.51031	60.1942
25	3981.1	5824.81	145.642	5826.63	1.43231	61.8163
26	3162.3	5840.17	140.189	5841.85	1.37508	63.4633
27	2511.9	5853.68	137.378	5855.29	1.34441	65.2303
28	1995.3	5871.72	135.644	5873.29	1.32337	66.9374
29	1584.9	5886.7	136.09	5888.28	1.32434	68.4394
30	1258.9	5902.4	138.435	5904.03	1.34357	70.1264
31	1000	5915.94	141.972	5917.65	1.37473	71.7785
32	794.33	5931.99	147.133	5933.81	1.42084	73.6855
33	630.96	5952.95	154.396	5954.96	1.48569	75.2275
34	501.19	5969.23	163.163	5971.46	1.56573	77.1195
35	398.11	5989.71	174.959	5992.27	1.67313	78.8516
36	316.23	6010.23	188.143	6013.17	1.793	80.7336
37	251.19	6027.75	203.963	6031.2	1.938	82.3556
38	199.53	6051.95	223.068	6056.06	2.1109	84.0177
39	158.49	6078.01	246.295	6083	2.32049	85.7397
40	125.89	6102.5	272.559	6108.58	2.55734	87.4917
41	100	6130.29	305.428	6137.89	2.85228	89.3488
42	79.433	6166.86	343.486	6176.42	3.18801	91.0208
43	63.096	6207.42	381.611	6219.14	3.51792	92.9228
44	50.119	6256.43	438.41	6271.78	4.00836	94.9199
45	39.811	6308.35	490.824	6327.42	4.44896	96.7469
46	31.623	6369.24	546.81	6392.67	4.90691	98.924
47	25.119	6444.74	615.793	6474.1	5.45802	100.891
48	19.953	6525.98	686.367	6561.97	6.00399	103.328
49	15.849	6620.94	763.924	6664.87	6.58168	105.42
50	12.589	6719.01	840.125	6771.33	7.1271	107.897
51	10	6828.99	925.218	6891.38	7.71567	111.114
52	7.9433	6949.57	1016.58	7023.53	8.32214	113.916
53	6.3096	7066.65	1118.24	7154.57	8.99202	116.518
54	5.0119	7198.19	1232.84	7303	9.71882	119.21
55	3.9811	7333.31	1366.5	7459.54	10.5555	122.132
56	3.1623	7477.02	1522	7630.35	11.5058	124.989
57	2.5119	7626.87	1704.89	7815.1	12.6006	127.826
58	1.9953	7791.45	1923.2	8025.3	13.8654	130.594
59	1.5849	7967.7	2184.12	8261.64	15.3294	133.826
60	1.2589	8150.34	2490.88	8522.47	16.994	137.078
61	1	8349.3	2880.81	8832.32	19.0363	142.767
62	0.79433	8578.81	3346.4	9208.39	21.3096	146.099
63	0.63096	8818.22	3889.3	9637.83	23.8	149.926
64	0.50119	9051.57	4596	10151.6	26.9195	154.173
65	0.39811	9323.87	5398.77	10774.1	30.072	158.82
66	0.31623	9619.76	6443.1	11578.1	33.8133	165.022
67	0.25119	10034.2	7752.82	12680.4	37.691	170.644
68	0.19953	10422.4	9330.75	13988.9	41.8367	176.936
69	0.15849	10893.7	11227.3	15643.7	45.8641	184.444
70	0.12589	11512.4	13470.5	17719.7	49.4815	193.081
71	0.1	11981.6	16258.2	20196.2	53.6113	203.828

File: Z_s11_1.txt
Index	Frequency (Hz)	Z' (Ω)	-Z'' (Ω)	Z (Ω)	-Phase (°)	Time (s)
1	1000000	2158.97	1599.89	2687.15	36.5399	23.2025
2	794330	2411.98	1495.18	2837.82	31.7948	26.3496
3	630960	2750.69	1395.05	3084.23	26.8925	28.4566
4	501190	3018.01	1268.9	3273.91	22.804	31.0137
5	398110	3263.71	1100.69	3444.32	18.6368	33.9607
6	316230	3436.16	972.344	3571.09	15.8001	36.0078
7	251190	3507.66	817.246	3601.61	13.1153	38.0648
8	199530	3638.08	723.141	3709.25	11.2422	40.1719
9	158490	3736.76	633.072	3790.01	9.61559	42.1989
10	125890	3815.92	550.503	3855.43	8.20912	44.2259
11	100000	3882.76	476.876	3911.94	7.00193	46.008
12	79433	3934.13	411.409	3955.58	5.96997	48.175
13	63096	3975.68	354.557	3991.45	5.09625	50.297
14	50119	4010.69	305.396	4022.3	4.35441	52.1791
15	39811	4041.53	263.259	4050.09	3.7269	54.5761
16	31623	4065.03	227.511	4071.39	3.20338	56.8432
17	25119	4082.95	199.971	4087.84	2.80394	58.7802
18	19953	4100.8	177.056	4104.62	2.47227	60.3222
19	15849	4117.77	158.432	4120.82	2.20338	63.3293
20	12589	4134.83	144.158	4137.34	1.99677	65.2213
21	10000	4149.85	132.662	4151.97	1.831	67.1984
22	7943.3	4166.04	124.362	4167.9	1.70985	69.3104
23	6309.6	4178.75	118.323	4180.43	1.62192	71.0474
24	5011.9	4192.68	114.766	4194.25	1.56796	72.7395
25	3981.1	4207.4	112.592	4208.91	1.53289	74.4215
26	3162.3	4220.03	112.305	4221.52	1.52441	76.0735
27	2511.9	4234.26	113.199	4235.77	1.53138	77.7255
28	1995.3	4248.79	115.941	4250.37	1.56311	79.4226
29	1584.9	4263.72	119.762	4265.4	1.60894	81.0846
30	1258.9	4282.61	125.913	4284.46	1.68407	82.6116
31	1000	4296.71	132.249	4298.75	1.76296	84.1837
32	794.33	4316.5	140.971	4318.8	1.87053	85.9057
33	630.96	4334.02	151.16	4336.65	1.99753	87.3827
34	501.19	4354.57	162.889	4357.61	2.14224	89.1298
35	398.11	4377.16	176.518	4380.72	2.30931	90.6668
36	316.23	4399	192.651	4403.22	2.50763	92.2688
37	251.19	4423.93	211.168	4428.97	2.73283	93.9108
38	199.53	4453.08	232.364	4459.14	2.98702	95.6779
39	158.49	4480.66	256.744	4488	3.2795	97.2949
40	125.89	4512.51	285.506	4521.53	3.62028	99.0669
41	100	4548.81	316.968	4559.84	3.98601	100.864
42	79.433	4591.92	354.086	4605.56	4.40938	102.856
43	63.096	4638.59	393.498	4655.25	4.84887	104.658
44	50.119	4693.08	438.56	4713.52	5.33869	106.61
45	39.811	4752.16	490.4	4777.4	5.89179	108.382
46	31.623	4820.97	544.159	4851.58	6.43992	110.229
47	25.119	4896.1	599.861	4932.71	6.98496	112.301
48	19.953	4976.59	661.942	5020.42	7.57651	114.428
49	15.849	5070.53	727.757	5122.49	8.1677	117.06
50	12.589	5161.67	798.413	5223.05	8.79289	120.112
51	10	5266.98	879.138	5339.84	9.47617	123.824
52	7.9433	5373.18	968.222	5459.72	10.2148	126.861
53	6.3096	5489.38	1070.33	5592.76	11.0332	130.859
54	5.0119	5613.88	1190.76	5738.78	11.9755	135.076
55	3.9811	5738.43	1330.12	5890.56	13.0503	138.778
56	3.1623	5878.18	1497.2	6065.85	14.2897	142.775
57	2.5119	6024.12	1695.64	6258.21	15.7206	146.782
58	1.9953	6179.33	1936.06	6475.53	17.3964	150.254
59	1.5849	6349.46	2222.41	6727.17	19.2909	153.951
60	1.2589	6533.49	2568.65	7020.29	21.4624	157.633
61	1	6741.09	2983.37	7371.75	23.8725	161.645
62	0.79433	6972.31	3489.24	7796.66	26.5853	165.497
63	0.63096	7223.19	4102.26	8306.81	29.5935	170.084
64	0.50119	7497.79	4841.52	8925.09	32.8514	174.856
65	0.39811	7805.03	5738.13	9687.35	36.3227	180.013
66	0.31623	8178.77	6841.19	10662.7	39.911	186.451
67	0.25119	8598.8	8208.81	11888	43.6708	194.198
68	0.19953	9077.33	9857.69	13400.4	47.36	202.295
69	0.15849	9678.56	11890.1	15331.3	50.8544	211.852
70	0.12589	10305.8	14362.5	17677.4	54.3386	222.134
71	0.1	11162	17417.6	20687.3	57.3464	233.496

File: Z_s12_1.2.txt
Index	Frequency (Hz)	Z' (Ω)	-Z'' (Ω)	Z (Ω)	-Phase (°)	Time (s)
1	1000000	2729.95	1812.11	3276.64	33.5758	20.9345
2	794330	2982.26	1643.5	3405.14	28.8589	22.6665
3	630960	3282.26	1526.9	3620.03	24.9478	24.4286
4	501190	3565.5	1425.58	3839.93	21.7928	26.2806
5	398110	3863.22	1275.4	4068.31	18.2701	28.0176
6	316230	4081.23	1165.89	4244.49	15.9431	29.7397
7	251190	4186.3	1003.44	4304.88	13.4792	31.5567
8	199530	4357.35	904.731	4450.28	11.7298	33.1837
9	158490	4495.1	804.222	4566.47	10.1435	34.8208
10	125890	4605.52	707.625	4659.57	8.73502	36.3828
11	100000	4691.71	617.517	4732.18	7.49809	38.3448
12	79433	4764.84	536.889	4795	6.42881	39.9419
13	63096	4821.29	465.03	4843.67	5.50933	41.7139
14	50119	4869.82	402.286	4886.41	4.72236	43.3109
15	39811	4906.06	347.034	4918.32	4.04612	45.098
16	31623	4934.04	300.478	4943.18	3.48496	46.735
17	25119	4962.79	264.504	4969.84	3.05083	48.612
18	19953	4983.72	233.386	4989.18	2.68119	50.2341
19	15849	5004.6	208.652	5008.94	2.3874	52.1311
20	12589	5022.98	188.475	5026.51	2.14888	53.8481
21	10000	5036.54	172.534	5039.5	1.96198	55.6752
22	7943.3	5054.16	160.931	5056.72	1.82376	57.2172
23	6309.6	5070.46	152.609	5072.75	1.72395	59.0342
24	5011.9	5085.58	146.881	5087.7	1.65435	60.7313
25	3981.1	5099.63	143.776	5101.65	1.61493	62.4083
26	3162.3	5114.58	142.751	5116.57	1.59874	64.1203
27	2511.9	5131.15	143.952	5133.17	1.60699	65.9823
28	1995.3	5147.07	146.949	5149.16	1.63536	67.6844
29	1584.9	5166.54	152.235	5168.78	1.68776	69.3614
30	1258.9	5182.67	159.515	5185.12	1.76292	71.0184
31	1000	5200.87	168.188	5203.59	1.85221	72.6955
32	794.33	5220.39	179.445	5223.47	1.9687	74.5075
33	630.96	5247.01	192.892	5250.56	2.10537	76.0795
34	501.19	5269.78	207.73	5273.87	2.25738	77.8466
35	398.11	5294.66	225.369	5299.45	2.43735	79.3336
36	316.23	5324.41	245.164	5330.05	2.63634	81.1206
37	251.19	5355.49	267.645	5362.18	2.86102	82.6377
38	199.53	5387.62	292.644	5395.56	3.10913	84.4297
39	158.49	5423.12	321.883	5432.66	3.39674	86.1517
40	125.89	5461.65	355.027	5473.18	3.7192	87.9388
41	100	5504.54	391.482	5518.44	4.06802	89.6508
42	79.433	5555.73	434.734	5572.71	4.47426	91.4828
43	63.096	5610.8	486.063	5631.82	4.95116	93.3749
44	50.119	5673.07	533.509	5698.1	5.37244	95.4369
45	39.811	5750.2	593.468	5780.75	5.89252	97.1739
46	31.623	5827.19	656.058	5864	6.42364	99.086
47	25.119	5918.06	719.226	5961.6	6.92922	100.828
48	19.953	6017.59	788.123	6068.98	7.46154	103.18
49	15.849	6125.28	858.922	6185.21	7.98229	105.572
50	12.589	6241.97	933.562	6311.4	8.50622	108.094
51	10	6359.92	1016.31	6440.61	9.07903	110.756
52	7.9433	6484.11	1108.31	6578.15	9.69964	113.553
53	6.3096	6613.24	1213.2	6723.6	10.3953	116.235
54	5.0119	6748.61	1336.31	6879.64	11.2004	118.852
55	3.9811	6891.34	1482.36	7048.96	12.1396	121.789
56	3.1623	7041.66	1656.16	7233.8	13.2351	124.711
57	2.5119	7202.76	1864.69	7440.22	14.5144	127.638
58	1.9953	7374.13	2115.11	7671.47	16.0044	130.581
59	1.5849	7567.82	2417.6	7944.61	17.7165	133.633
60	1.2589	7772.51	2771.62	8251.9	19.6259	137.04
61	1	8005.1	3208.18	8624.04	21.8393	140.782
62	0.79433	8274.09	3731.02	9076.41	24.272	144.284
63	0.63096	8565.98	4336.88	9601.28	26.8527	148.051
64	0.50119	8861.48	5097.22	10222.9	29.908	152.458
65	0.39811	9243.47	5997.55	11018.7	32.9772	157.16
66	0.31623	9648.13	7088.43	11972.1	36.3045	162.247
67	0.25119	10060.4	8423.8	13121.4	39.9402	168.019
68	0.19953	10654.4	10033.1	14634.9	43.2799	174.706
69	0.15849	11263.9	12016.6	16470.4	46.8519	182.499
70	0.12589	11952.7	14354	18679	50.2154	191.611
71	0.1	12584.5	17332.5	21419.3	54.018	202.113