Folder: Streamlit_cement/data (part 11)

File: Z_s15_1.2.txt
Index	Frequency (Hz)	Z' (Ω)	-Z'' (Ω)	Z (Ω)	-Phase (°)	Time (s)
1	1000000	2947	2305.75	3741.83	38.0398	26.0416
2	794330	3317.64	2111.87	3932.78	32.4791	28.7737
3	630960	3732.92	2057.66	4262.47	28.8644	31.7857
4	501190	4130.02	1973.94	4577.5	25.5454	34.6328
5	398110	4575.67	1836.42	4930.44	21.8678	36.8148
6	316230	4903.2	1723.67	5197.35	19.3686	39.6569
7	251190	5097.01	1534.67	5323.03	16.7567	42.5189
8	199530	5366.59	1418.23	5550.82	14.8032	45.016
9	158490	5598.31	1292.08	5745.49	12.9962	47.418
10	125890	5789.66	1162.91	5905.3	11.3573	49.8601
11	100000	5952.18	1037.68	6041.95	9.88931	52.8321
12	79433	6085.43	918.584	6154.37	8.58389	55.2291
13	63096	6200.77	808.327	6253.23	7.42715	58.1012
14	50119	6292.8	706.277	6332.31	6.40384	60.0482
15	39811	6374.65	613.599	6404.11	5.49813	61.9903
16	31623	6431.95	529.493	6453.71	4.70611	63.9673
17	25119	6483.98	461.694	6500.39	4.07289	66.2694
18	19953	6527.42	402.097	6539.8	3.52503	68.7214
19	15849	6566.35	351.478	6575.75	3.06396	71.2834
20	12589	6595.27	308.377	6602.48	2.67705	74.1205
21	10000	6624.15	272.976	6629.77	2.35978	77.4026
22	7943.3	6647.71	244.615	6652.21	2.10735	80.1046
23	6309.6	6671.46	221.481	6675.13	1.90142	82.5217
24	5011.9	6695.61	203.303	6698.7	1.73918	84.8487
25	3981.1	6712.75	188.483	6715.39	1.60835	87.5257
26	3162.3	6731.02	176.573	6733.34	1.50268	89.7928
27	2511.9	6750.19	168.323	6752.29	1.42843	92.1848
28	1995.3	6770.56	162.593	6772.52	1.37567	95.0569
29	1584.9	6788.22	158.247	6790.06	1.33544	96.9839
30	1258.9	6807.35	156.955	6809.16	1.32082	98.756
31	1000	6825.51	157.304	6827.33	1.32023	100.888
32	794.33	6842.03	159.075	6843.88	1.33187	102.835
33	630.96	6863.52	163.443	6865.46	1.36415	104.922
34	501.19	6884.97	169.324	6887.06	1.40881	106.659
35	398.11	6903.33	176.809	6905.6	1.46715	108.811
36	316.23	6927.89	187.639	6930.43	1.55145	110.483
37	251.19	6946.07	199.728	6948.94	1.64703	112.95
38	199.53	6971.52	216.155	6974.87	1.77591	114.862
39	158.49	6993.79	234.329	6997.72	1.919	116.834
40	125.89	7021.6	256.792	7026.29	2.09447	118.721
41	100	7050.82	282.775	7056.49	2.29663	120.753
42	79.433	7084.74	313.601	7091.68	2.5345	122.915
43	63.096	7122.41	351.148	7131.06	2.8225	125.047
44	50.119	7173.6	386.751	7184.02	3.086	127.539
45	39.811	7217.68	430.132	7230.49	3.41046	129.407
46	31.623	7275.35	476.749	7290.96	3.74919	131.804
47	25.119	7341.31	525.699	7360.11	4.09586	133.996
48	19.953	7409.43	586.376	7432.59	4.52491	136.513
49	15.849	7486.69	643.774	7514.32	4.91472	138.975
50	12.589	7573.96	707.632	7606.95	5.33763	141.417
51	10	7661.72	779.677	7701.29	5.81057	144.299
52	7.9433	7760.38	854.585	7807.3	6.28418	147.301
53	6.3096	7862.47	947.075	7919.3	6.86848	150.393
54	5.0119	7976.23	1043.21	8044.16	7.45145	153.705
55	3.9811	8085.83	1159.87	8168.6	8.16308	156.827
56	3.1623	8206.45	1295.94	8308.15	8.97387	159.969
57	2.5119	8339.55	1456.26	8465.75	9.90518	163.036
58	1.9953	8472.04	1645.24	8630.31	10.9899	166.133
59	1.5849	8618.86	1882.44	8822.03	12.3205	169.34
60	1.2589	8785.98	2154.46	9046.28	13.778	172.597
61	1	8940.26	2492.34	9281.16	15.5772	176.299
62	0.79433	9151.29	2916.98	9604.94	17.6797	180.096
63	0.63096	9346.05	3393.89	9943.19	19.9578	184.254
64	0.50119	9586.31	4004.98	10389.3	22.6743	188.856
65	0.39811	9842.72	4756.75	10931.9	25.7933	193.833
66	0.31623	10150.8	5669.45	11626.7	29.1844	198.99
67	0.25119	10484.3	6730.2	12458.6	32.6977	204.947
68	0.19953	10902.9	8154.94	13615.3	36.7951	211.809
69	0.15849	11342.3	9787.78	14981.6	40.7924	219.661
70	0.12589	11847	11756	16689.9	44.7792	229.608
71	0.1	12620.9	14196.7	18995.6	48.3627	240.471

File: Z_s15_1.3.txt
Index	Frequency (Hz)	Z' (Ω)	-Z'' (Ω)	Z (Ω)	-Phase (°)	Time (s)
1	1000000	3021.28	2380.95	3846.69	38.2403	21.2555
2	794330	3405.99	2221.01	4066.16	33.108	23.0425
3	630960	3832.98	2111.16	4375.93	28.8454	25.0796
4	501190	4235.37	2012.49	4689.19	25.4153	26.8666
5	398110	4699.4	1884.48	5063.17	21.851	28.7236
6	316230	5032.05	1764.7	5332.52	19.3254	30.3657
7	251190	5230.78	1566.04	5460.18	16.6671	33.2847
8	199530	5507.92	1443.49	5693.93	14.6855	34.9118
9	158490	5739.63	1310.87	5887.42	12.8651	36.5838
10	125890	5932.83	1175.79	6048.22	11.2098	38.1458
11	100000	6093.46	1045.35	6182.48	9.73449	39.8929
12	79433	6228.76	923.059	6296.78	8.42949	41.5049
13	63096	6337.57	809.614	6389.07	7.28001	43.3869
14	50119	6431.5	706.583	6470.19	6.26954	44.9689
15	39811	6505.27	611.909	6533.98	5.37364	46.776
16	31623	6564.66	528.814	6585.93	4.6055	48.358
17	25119	6614	460.508	6630.01	3.98286	50.11
18	19953	6652.69	401.059	6664.76	3.44992	51.9371
19	15849	6690.99	350.606	6700.17	2.99953	53.6441
20	12589	6720.66	308.291	6727.73	2.62644	55.2261
21	10000	6748.22	274.007	6753.78	2.32518	56.9282
22	7943.3	6771.49	245.021	6775.93	2.0723	58.5402
23	6309.6	6794.71	221.948	6798.33	1.87089	60.2872
24	5011.9	6814.49	203.259	6817.52	1.70848	62.0493
25	3981.1	6837.9	188.455	6840.5	1.57869	64.2663
26	3162.3	6850.15	176.679	6852.43	1.47745	65.9733
27	2511.9	6873.41	168.466	6875.47	1.40403	67.9654
28	1995.3	6889.75	162.281	6891.66	1.34929	69.6874
29	1584.9	6907.53	158.492	6909.35	1.31441	71.4544
30	1258.9	6923.35	157.269	6925.14	1.30129	73.1665
31	1000	6945.87	156.694	6947.63	1.29234	74.8485
32	794.33	6963.68	159.518	6965.51	1.31225	76.6755
33	630.96	6980.06	161.681	6981.94	1.32692	78.4226
34	501.19	6996.98	166.586	6998.97	1.36385	80.2846
35	398.11	7019.93	175.907	7022.13	1.43543	82.1966
36	316.23	7040.85	185.471	7043.29	1.50895	83.9687
37	251.19	7060.43	196.177	7063.16	1.59158	86.0307
38	199.53	7082.49	211.307	7085.64	1.70892	87.6227
39	158.49	7106.16	231.866	7109.94	1.86884	89.5598
40	125.89	7130.19	250.967	7134.61	2.01585	91.3268
41	100	7165.55	278.148	7170.95	2.22296	93.3088
42	79.433	7198.06	308.83	7204.68	2.45675	94.7659
43	63.096	7208.97	359.683	7217.93	2.85634	96.6129
44	50.119	7284.79	358.739	7293.61	2.81925	98.4949
45	39.811	7321.53	425.425	7333.88	3.32549	101.557
46	31.623	7376.76	482.559	7392.53	3.74273	103.619
47	25.119	7448.17	519.811	7466.28	3.99223	105.456
48	19.953	7507.41	579.919	7529.77	4.41711	108.183
49	15.849	7575.95	634.746	7602.49	4.7893	110.23
50	12.589	7669.06	710.226	7701.88	5.29103	112.242
51	10	7760.6	775.651	7799.27	5.7076	114.759
52	7.9433	7848.46	856.615	7895.07	6.22885	117.206
53	6.3096	7950.3	935.049	8005.1	6.70785	119.953
54	5.0119	8064.52	1034.94	8130.66	7.31294	122.46
55	3.9811	8179.93	1148.28	8260.13	7.99081	125.192
56	3.1623	8298.77	1276.08	8396.31	8.74176	127.834
57	2.5119	8430.99	1434.49	8552.15	9.65611	130.627
58	1.9953	8563.48	1618.25	8715.04	10.7011	133.544
59	1.5849	8708.27	1844.81	8901.54	11.961	136.446
60	1.2589	8855.84	2102.73	9102.05	13.357	139.353
61	1	9037.53	2439.07	9360.88	15.1033	144.932
62	0.79433	9227.29	2824.67	9649.96	17.0204	148.564
63	0.63096	9432.43	3309.07	9996.04	19.3318	152.641
64	0.50119	9642.74	3901.15	10402	22.0267	156.853
65	0.39811	9881.41	4581.43	10891.8	24.8744	161.59
66	0.31623	10176.4	5459.33	11548.3	28.2123	166.762
67	0.25119	10466.5	6550.73	12347.4	32.0416	172.714
68	0.19953	10931.2	7827.53	13444.8	35.6054	179.381
69	0.15849	11418.1	9440.29	14815.2	39.5834	187.279
70	0.12589	11902.2	11271.9	16392.6	43.4422	196.091
71	0.1	12396.5	13726.4	18495.6	47.9144	206.703

File: Z_s15_1.4.txt
Index	Frequency (Hz)	Z' (Ω)	-Z'' (Ω)	Z (Ω)	-Phase (°)	Time (s)
1	1000000	2954.91	2379.48	3793.87	38.8432	21.9415
2	794330	3148.93	2217.4	3851.31	35.1522	23.9486
3	630960	3778.09	2125	4334.7	29.3557	25.9156
4	501190	4180.19	2029.48	4646.8	25.8966	27.7926
5	398110	4648.83	1896	5020.6	22.1878	29.8447
6	316230	4987.57	1772.55	5293.19	19.5649	31.7167
7	251190	5185.13	1567.78	5416.96	16.8233	33.6687
8	199530	5459.82	1440.27	5646.6	14.7776	35.5458
9	158490	5692.94	1303.13	5840.18	12.893	37.5578
10	125890	5882.03	1164.04	5996.1	11.1941	39.3949
11	100000	6035.41	1029.51	6122.59	9.68022	41.3119
12	79433	6166.81	905.453	6232.93	8.35288	43.2939
13	63096	6274.06	791.032	6323.73	7.18593	45.276
14	50119	6361.16	687.19	6398.17	6.16569	47.248
15	39811	6433.16	593.896	6460.51	5.27448	49.1
16	31623	6487.89	511.631	6508.03	4.50898	50.9671
17	25119	6532.64	445.324	6547.8	3.89976	52.7391
18	19953	6574.98	388.478	6586.45	3.38135	54.6461
19	15849	6607.41	339.366	6616.12	2.94021	56.3582
20	12589	6634.89	298.446	6641.6	2.5755	58.1402
21	10000	6658.94	265.149	6664.22	2.28022	59.7522
22	7943.3	6683.39	237.125	6687.59	2.03199	61.6593
23	6309.6	6703.62	215.108	6707.08	1.83789	63.6313
24	5011.9	6727.77	197.493	6730.67	1.68143	65.7933
25	3981.1	6744.96	183.536	6747.46	1.55868	67.6454
26	3162.3	6761.66	172.46	6763.86	1.46104	69.6674
27	2511.9	6780.38	164.703	6782.38	1.39151	71.6245
28	1995.3	6799.73	158.179	6801.57	1.3326	73.6965
29	1584.9	6814.68	154.59	6816.43	1.29952	75.4435
30	1258.9	6833.61	152.996	6835.33	1.28257	77.3856
31	1000	6845.79	153.117	6847.5	1.2813	79.0826
32	794.33	6868.55	155.186	6870.3	1.2943	81.0146
33	630.96	6888.49	159.146	6890.33	1.32348	82.6617
34	501.19	6903.67	164.22	6905.62	1.36266	84.9637
35	398.11	6925.15	171.931	6927.29	1.42219	86.7957
36	316.23	6944.68	182.374	6947.07	1.5043	88.6328
37	251.19	6966.73	194.275	6969.44	1.59735	90.6998
38	199.53	6987.96	210.17	6991.12	1.72271	92.5468
39	158.49	7010.56	228.023	7014.27	1.86292	94.5689
40	125.89	7034.28	251.01	7038.75	2.04366	96.4959
41	100	7057.84	275.135	7063.2	2.23242	98.698
42	79.433	7094.04	305.575	7100.61	2.46649	100.45
43	63.096	7127.02	341.942	7135.21	2.74685	102.507
44	50.119	7170.94	382.591	7181.14	3.054	104.549
45	39.811	7221.18	421.569	7233.47	3.34111	107.206
46	31.623	7279.16	469.916	7294.31	3.69368	109.763
47	25.119	7341.43	520.123	7359.83	4.05251	111.875
48	19.953	7404.72	575.548	7427.05	4.44451	114.417
49	15.849	7488.27	631.775	7514.87	4.82255	117.169
50	12.589	7569.62	700.555	7601.97	5.28757	119.616
51	10	7656.45	766.597	7694.73	5.71764	122.563
52	7.9433	7752.58	843.484	7798.33	6.20938	125.83
53	6.3096	7852.89	928.231	7907.56	6.74122	128.848
54	5.0119	7963.56	1021.66	8028.83	7.31066	131.905
55	3.9811	8073.37	1135.54	8152.84	8.00625	134.977
56	3.1623	8194.82	1263.34	8291.62	8.76393	137.949
57	2.5119	8318.86	1416.84	8438.66	9.66569	141.031
58	1.9953	8449.66	1597.09	8599.27	10.7034	144.168
59	1.5849	8596.66	1819.62	8787.13	11.9512	147.47
60	1.2589	8750.61	2073.53	8992.93	13.3308	151.107
61	1	8912.69	2400.56	9230.32	15.0744	155.464
62	0.79433	9100.84	2787.6	9518.2	17.0299	159.081
63	0.63096	9291.3	3254.92	9844.93	19.3063	162.978
64	0.50119	9497.47	3810.66	10233.4	21.8621	167.175
65	0.39811	9732.45	4520.75	10731.2	24.915	172.267
66	0.31623	10014.2	5412.57	11383.3	28.3907	178.464
67	0.25119	10338.7	6509.26	12217.2	32.1945	184.657
68	0.19953	10718	7712.52	13204.5	35.7383	191.369
69	0.15849	11150.5	9252.23	14489.2	39.6846	199.421
70	0.12589	11681.6	11135.6	16138.8	43.6291	208.793
71	0.1	12202.2	13473.5	18177.7	47.8347	220.045

File: Z_s15_1.5.txt
Index	Frequency (Hz)	Z' (Ω)	-Z'' (Ω)	Z (Ω)	-Phase (°)	Time (s)
1	1000000	2912.31	2499.33	3837.73	40.636	21.9576
2	794330	3335.66	2373.45	4093.88	35.4333	24.0046
3	630960	3816.05	2267.31	4438.8	30.7167	25.9016
4	501190	4281.17	2166.09	4797.96	26.8374	27.9687
5	398110	4771.4	2036.67	5187.9	23.1152	30.0507
6	316230	5136.44	1901.45	5477.09	20.314	32.0377
7	251190	5365.35	1672.53	5620	17.3137	34.0248
8	199530	5657.54	1537.11	5862.63	15.1999	36.0468
9	158490	5900.22	1387.57	6061.18	13.2339	38.0389
10	125890	6102.56	1237.42	6226.76	11.4625	39.9059
11	100000	6269.31	1094.3	6364.1	9.90116	41.9279
12	79433	6406.55	964.459	6478.74	8.56117	43.545
13	63096	6514.11	843.568	6568.5	7.37867	45.752
14	50119	6610.9	732.159	6651.32	6.31977	47.179
15	39811	6687.48	632.304	6717.31	5.40128	48.6161
16	31623	6742.86	545.016	6764.85	4.62109	49.9831
17	25119	6794.52	474.451	6811.07	3.99439	51.3851
18	19953	6835.66	412.772	6848.12	3.45562	52.8321
19	15849	6875.21	360.217	6884.64	2.99919	54.1792
20	12589	6904.67	316.796	6911.93	2.62697	55.6762
21	10000	6930.97	279.143	6936.59	2.30633	57.1132
22	7943.3	6958.09	251.034	6962.62	2.06622	58.6602
23	6309.6	6979.93	226.739	6983.62	1.86056	60.0323
24	5011.9	6999.52	208.044	7002.62	1.70248	61.4493
25	3981.1	7018.55	192.729	7021.2	1.57294	62.8913
26	3162.3	7040.21	180.54	7042.52	1.46898	64.2183
27	2511.9	7056.68	171.602	7058.77	1.39303	65.6054
28	1995.3	7077.08	164.988	7079	1.3355	66.9874
29	1584.9	7095.41	160.596	7097.22	1.2966	68.4244
30	1258.9	7113.2	159.615	7114.99	1.28546	69.9114
31	1000	7132.96	158.373	7134.71	1.27193	71.4235
32	794.33	7149.3	160.029	7151.09	1.28228	73.0655
33	630.96	7170.24	163.322	7172.1	1.30484	74.5075
34	501.19	7187.98	169.223	7189.97	1.34864	75.9746
35	398.11	7211.94	176.22	7214.09	1.39971	77.3766
36	316.23	7230.06	187.049	7232.48	1.48197	78.8236
37	251.19	7253.44	199.545	7256.19	1.57583	80.2506
38	199.53	7275.28	213.632	7278.42	1.68195	81.5477
39	158.49	7300.5	232.524	7304.21	1.82427	82.9597
40	125.89	7322.06	254.531	7326.49	1.99092	84.4417
41	100	7352.46	283.043	7357.91	2.20459	85.8787
42	79.433	7387.73	311.098	7394.27	2.41131	87.3858
43	63.096	7419.49	353.817	7427.93	2.73023	89.1628
44	50.119	7458.64	377.792	7468.2	2.89964	90.8998
45	39.811	7517.66	428.163	7529.85	3.25972	92.5319
46	31.623	7571.89	482.672	7587.26	3.6474	94.1789
47	25.119	7638.86	531.476	7657.32	3.97996	95.8759
48	19.953	7704.05	587.924	7726.45	4.36399	97.823
49	15.849	7791.08	648.14	7818	4.75549	99.895
50	12.589	7872.46	711.573	7904.55	5.16479	102.172
51	10	7963.02	784.457	8001.56	5.6262	104.469
52	7.9433	8066.2	861.127	8112.03	6.09367	107.046
53	6.3096	8165.38	946.908	8220.1	6.61483	109.618
54	5.0119	8279.64	1046.03	8345.45	7.20047	112.545
55	3.9811	8395.14	1160.65	8474.99	7.87141	115.107
56	3.1623	8520.24	1290.62	8617.44	8.6135	117.719
57	2.5119	8651.11	1443.55	8770.72	9.47329	121.581
58	1.9953	8786.71	1624.55	8935.62	10.475	124.368
59	1.5849	8937.09	1845.8	9125.7	11.6694	127.476
60	1.2589	9074.9	2100.22	9314.76	13.0306	130.408
61	1	9264.7	2432.89	9578.81	14.7135	136.057
62	0.79433	9466.23	2818.28	9876.85	16.5793	139.974
63	0.63096	9663.6	3295.03	10209.9	18.828	144.041
64	0.50119	9864.97	3881.22	10601	21.4764	148.108
65	0.39811	10090.6	4553.23	11070.4	24.2865	152.585
66	0.31623	10419.4	5443.61	11755.7	27.5847	158.082
67	0.25119	10674.8	6528.41	12512.9	31.4488	163.784
68	0.19953	11155.5	7797.09	13610.3	34.9514	170.811
69	0.15849	11622.3	9367.83	14927.6	38.8697	178.398
70	0.12589	12090	11248.2	16513.4	42.9344	187.916
71	0.1	12527.6	13607.3	18496	47.3658	203.003

File: Z_s15_1.txt
Index	Frequency (Hz)	Z' (Ω)	-Z'' (Ω)	Z (Ω)	-Phase (°)	Time (s)
1	1000000	2435.84	2472.24	3470.63	45.4249	27.2176
2	794330	2948.08	2366.04	3780.12	38.7495	29.0897
3	630960	3469.17	2398.08	4217.34	34.6544	31.2317
4	501190	3990.13	2307.21	4609.15	30.0378	33.3087
5	398110	4507.6	2144.96	4991.93	25.4477	36.5008
6	316230	4884.21	1978.94	5269.89	22.0563	41.0979
7	251190	5109.23	1745.24	5399.09	18.8594	44.0199
8	199530	5400.19	1599.94	5632.22	16.5032	46.777
9	158490	5641.98	1450.25	5825.39	14.4156	49.029
10	125890	5849.29	1303.22	5992.71	12.5603	51.2261
11	100000	6027.65	1162.32	6138.69	10.9144	52.9181
12	79433	6176.43	1028.09	6261.41	9.45048	54.7851
13	63096	6302.5	903.148	6366.88	8.15497	56.7522
14	50119	6406.15	786.929	6454.3	7.00311	59.4792
15	39811	6490.07	680.517	6525.65	5.98588	61.7363
16	31623	6557.36	585.575	6583.46	5.103	63.4983
17	25119	6613.26	508.18	6632.75	4.39412	65.5453
18	19953	6656.81	440.685	6671.38	3.78749	67.3374
19	15849	6698.93	383.021	6709.87	3.27241	69.4144
20	12589	6729.95	335.678	6738.32	2.85545	71.8714
21	10000	6755.62	296.743	6762.13	2.51512	74.2985
22	7943.3	6783.87	265.546	6789.07	2.24163	76.7555
23	6309.6	6805.99	240.196	6810.23	2.02123	78.7076
24	5011.9	6825.58	220.476	6829.14	1.85009	81.6746
25	3981.1	6845.53	204.715	6848.59	1.71291	85.7517
26	3162.3	6868.28	194.002	6871.02	1.61796	87.7437
27	2511.9	6886.88	185.515	6889.38	1.54303	89.5908
28	1995.3	6908.13	181.038	6910.51	1.50118	91.5028
29	1584.9	6927.04	178.526	6929.34	1.47632	93.9749
30	1258.9	6947.33	179.483	6949.65	1.4799	96.1919
31	1000	6966.19	180.947	6968.54	1.48792	98.4539
32	794.33	6988.53	185.068	6990.98	1.51694	100.821
33	630.96	7011.84	191.77	7014.47	1.56662	103.823
34	501.19	7032.59	201.967	7035.49	1.64501	107.55
35	398.11	7060.95	211.687	7064.12	1.71721	109.567
36	316.23	7085.97	225.168	7089.55	1.82005	112.369
37	251.19	7111.56	243.99	7115.75	1.96498	114.416
38	199.53	7141.08	262.209	7145.89	2.10287	116.573
39	158.49	7172.26	283.156	7177.85	2.26083	119.065
40	125.89	7203.77	306.384	7210.28	2.43538	120.937
41	100	7229.94	343.59	7238.1	2.72083	123.084
42	79.433	7282.68	373.465	7292.25	2.93563	125.456
43	63.096	7287.6	420.363	7299.71	3.30128	127.798
44	50.119	7346.35	484.689	7362.32	3.77473	130.421
45	39.811	7442.29	512.119	7459.89	3.93643	133.163
46	31.623	7513.5	583.138	7536.09	4.43795	135.67
47	25.119	7572.95	640.607	7599.99	4.83523	138.167
48	19.953	7663.83	700.232	7695.75	5.22053	141.379
49	15.849	7739.24	760.296	7776.5	5.61068	144.541
50	12.589	7842.85	853.045	7889.1	6.2075	147.493
51	10	7955.59	945.631	8011.6	6.77859	150.495
52	7.9433	8066.97	1035.7	8133.19	7.31607	153.582
53	6.3096	8188.94	1158.61	8270.5	8.05299	156.634
54	5.0119	8311.58	1287.92	8410.78	8.80823	159.861
55	3.9811	8451.7	1443.43	8574.07	9.69177	163.158
56	3.1623	8600.2	1620.99	8751.63	10.6741	166.415
57	2.5119	8755.86	1833.37	8945.74	11.8262	170.317
58	1.9953	8930.54	2087.03	9171.16	13.1537	175.029
59	1.5849	9117.21	2391.43	9425.63	14.6975	178.656
60	1.2589	9315.94	2751.55	9713.79	16.455	182.849
61	1	9546.23	3188.51	10064.6	18.4697	187.836
62	0.79433	9804.44	3709.9	10482.9	20.7261	192.023
63	0.63096	10074.6	4319.66	10961.6	23.2081	195.905
64	0.50119	10391.4	5113.09	11581.3	26.1994	200.427
65	0.39811	10739.6	6035.2	12319.2	29.3341	205.839
66	0.31623	11129	7145.57	13225.5	32.7031	211.206
67	0.25119	11641.9	8500.89	14415.2	36.1369	218.793
68	0.19953	12187.5	10233.6	15914.2	40.0195	226.83
69	0.15849	12878.5	12110.2	17678.1	43.2388	235.797
70	0.12589	13589.1	14491.1	19866	46.8399	245.115
71	0.1	14348.9	17465.4	22603.8	50.5948	256.307

File: Z_s16_1.2.txt
Index	Frequency (Hz)	Z' (Ω)	-Z'' (Ω)	Z (Ω)	-Phase (°)	Time (s)
1	1000000	4208.74	3776.23	5654.5	41.8996	21.5965
2	794330	4876.84	3347.16	5914.99	34.4632	23.3986
3	630960	5593.89	3117.13	6403.75	29.1282	25.2606
4	501190	6236.64	2903.25	6879.28	24.9627	27.2526
5	398110	7013.97	2695.83	7514.2	21.0243	29.2197
6	316230	7483	2467.42	7879.3	18.2493	31.0517
7	251190	7744.21	2139.68	8034.37	15.4451	32.8037
8	199530	8105.43	1928.01	8331.58	13.3801	34.8108
9	158490	8401.8	1712.04	8574.45	11.5175	36.3828
10	125890	8630.88	1500.91	8760.41	9.86507	38.0148
11	100000	8823.46	1305.95	8919.58	8.41919	39.7569
12	79433	8973.52	1129.97	9044.39	7.17708	41.4289
13	63096	9093.21	972.031	9145.02	6.10154	43.2459
14	50119	9189.42	833.331	9227.13	5.18162	45.183
15	39811	9271.73	710.195	9298.89	4.38018	46.895
16	31623	9324.96	604.252	9344.52	3.70755	48.467
17	25119	9376.03	524.883	9390.71	3.20415	50.1491
18	19953	9418.31	455.313	9429.31	2.76772	51.6561
19	15849	9452.14	397.432	9460.49	2.40768	53.4581
20	12589	9484.11	349.368	9490.55	2.10966	55.2151
21	10000	9512.95	310.564	9518.02	1.86984	57.0172
22	7943.3	9543.25	279.244	9547.33	1.67605	58.6542
23	6309.6	9568.14	253.627	9571.5	1.51841	60.3612
24	5011.9	9589.53	233.012	9592.36	1.39193	61.9383
25	3981.1	9612.22	217.028	9614.67	1.29343	63.7553
26	3162.3	9637.47	204.838	9639.64	1.2176	65.4223
27	2511.9	9661.14	195.261	9663.11	1.15785	67.5694
28	1995.3	9671.92	187.181	9673.73	1.10871	69.1564
29	1584.9	9696.91	183.267	9698.65	1.08274	71.0534
30	1258.9	9726.65	181.285	9728.34	1.06775	72.5905
31	1000	9748.91	182.02	9750.61	1.06964	74.3225
32	794.33	9764.96	182.674	9766.67	1.07171	76.0095
33	630.96	9790.81	186.666	9792.59	1.09223	77.5416
34	501.19	9808.92	191.997	9810.8	1.12135	79.4936
35	398.11	9836.17	200.602	9838.21	1.16834	81.1706
36	316.23	9860.46	210.137	9862.7	1.22085	83.6877
37	251.19	9886.41	223.638	9888.94	1.29585	85.7797
38	199.53	9913.42	238.699	9916.29	1.37932	87.4267
39	158.49	9940.69	259.104	9944.06	1.49308	89.3338
40	125.89	9971.76	281.389	9975.72	1.61638	91.0608
41	100	10003	309.962	10007.8	1.77485	93.0028
42	79.433	10040.5	339.22	10046.2	1.93502	94.6699
43	63.096	10088.7	382.519	10095.9	2.17137	96.9369
44	50.119	10143.6	408.621	10151.8	2.30684	98.804
45	39.811	10192.3	454.79	10202.5	2.55489	100.916
46	31.623	10260.1	500.738	10272.3	2.79407	102.968
47	25.119	10323.5	547.979	10338	3.03845	105.31
48	19.953	10395.6	601.764	10413	3.31296	108.202
49	15.849	10481	652.763	10501.3	3.5638	110.424
50	12.589	10566.4	717.69	10590.7	3.88569	112.861
51	10	10651.4	781.856	10680.1	4.19819	115.618
52	7.9433	10749.9	857.886	10784.1	4.56277	118.435
53	6.3096	10845.5	940.489	10886.2	4.95613	120.987
54	5.0119	10947.7	1040.27	10997.1	5.42802	123.979
55	3.9811	11058.1	1154.73	11118.2	5.96144	127.366
56	3.1623	11179.4	1294.83	11254.1	6.60673	131.379
57	2.5119	11299.6	1457.88	11393.3	7.3517	134.436
58	1.9953	11435.7	1656.41	11555.1	8.24171	137.523
59	1.5849	11577.8	1890.29	11731.1	9.2728	140.8
60	1.2589	11738.2	2178.34	11938.6	10.5132	144.147
61	1	11904	2516.5	12167.1	11.9365	147.939
62	0.79433	12119	2937.08	12469.8	13.6232	152.016
63	0.63096	12320.6	3420.92	12786.7	15.5178	155.873
64	0.50119	12521.7	4053.79	13161.6	17.9388	160.335
65	0.39811	12794.3	4806.68	13667.4	20.5907	165.227
66	0.31623	13078	5790.25	14302.5	23.8812	170.459
67	0.25119	13458.5	6861.13	15106.5	27.0124	176.406
68	0.19953	13815.3	8326.71	16130.6	31.078	183.064
69	0.15849	14213.9	9999.5	17378.9	35.1264	191.041
70	0.12589	14781.6	12082.8	19091.7	39.2633	200.263
71	0.1	15566.5	14396	21202.9	42.7628	210.785

File: Z_s16_1.3.txt
Index	Frequency (Hz)	Z' (Ω)	-Z'' (Ω)	Z (Ω)	-Phase (°)	Time (s)
1	1000000	4172.06	3920.85	5725.31	43.222	20.0875
2	794330	4826.01	3718.91	6092.68	37.6178	21.5095
3	630960	5642.66	3317.68	6545.73	30.4539	23.2316
4	501190	6322.12	3141.48	7059.61	26.4229	24.9086
5	398110	7186.66	2914.99	7755.34	22.078	31.7307
6	316230	7700.35	2672.19	8150.83	19.1379	35.1628
7	251190	7991.65	2329.88	8324.36	16.2535	39.7519
8	199530	8388.03	2103.09	8647.66	14.0754	41.1839
9	158490	8706.58	1867.57	8904.62	12.1065	42.6459
10	125890	8968.14	1640.31	9116.92	10.3651	44.0529
11	100000	9172.56	1426.62	9282.84	8.84048	45.515
12	79433	9338.01	1234.09	9419.21	7.52846	47.677
13	63096	9469.03	1058.5	9528.01	6.37833	49.149
14	50119	9574.53	908.37	9617.52	5.41963	50.7211
15	39811	9664.36	772.81	9695.21	4.57193	52.1431
16	31623	9721.14	657.236	9743.34	3.86782	53.7201
17	25119	9771.38	568.639	9787.91	3.33053	55.0571
18	19953	9823.01	492.413	9835.35	2.86975	56.5842
19	15849	9860.21	427.925	9869.49	2.48503	57.9562
20	12589	9894.07	374.723	9901.16	2.16896	59.3982
21	10000	9928.39	331.911	9933.93	1.91471	63.0043
22	7943.3	9950.45	296.483	9954.87	1.70668	64.4913
23	6309.6	9978.94	268.067	9982.54	1.53878	65.9383
24	5011.9	10001.8	245.097	10004.8	1.40377	67.4004
25	3981.1	10025.7	226.778	10028.3	1.29579	68.7624
26	3162.3	10046.3	212.716	10048.5	1.21298	70.2544
27	2511.9	10071.3	201.318	10073.3	1.14515	71.7115
28	1995.3	10091.6	192.273	10093.4	1.09152	73.3485
29	1584.9	10114.3	186.788	10116	1.058	74.7505
30	1258.9	10133.4	182.588	10135.1	1.03226	76.2675
31	1000	10154.5	182.217	10156.2	1.02803	77.7696
32	794.33	10173.8	182.292	10175.4	1.0265	79.3316
33	630.96	10199	185.04	10200.7	1.0394	80.8886
34	501.19	10220.5	189.286	10222.3	1.06101	82.3206
35	398.11	10245.7	196.327	10247.6	1.09776	83.6627
36	316.23	10267	205.674	10269	1.14763	84.9397
37	251.19	10292.5	217.04	10294.8	1.20803	86.3767
38	199.53	10314.1	232.413	10316.8	1.29085	87.8538
39	158.49	10340.8	249.545	10343.8	1.3824	89.3058
40	125.89	10367.5	270.786	10371.1	1.49615	91.1728
41	100	10403	299.225	10407.3	1.64756	92.6948
42	79.433	10432.3	325.649	10437.4	1.78793	94.3169
43	63.096	10479.9	369.757	10486.4	2.0207	95.8539
44	50.119	10519.4	409.544	10527.3	2.22953	97.8309
45	39.811	10574.7	438.186	10583.8	2.37281	99.448
46	31.623	10642.5	483.356	10653.4	2.60045	101.28
47	25.119	10693.8	527.707	10706.9	2.82507	102.892
48	19.953	10768.9	586.516	10784.9	3.11747	104.889
49	15.849	10848.5	631.603	10866.9	3.33202	106.871
50	12.589	10936.2	690.883	10958	3.61478	109.008
51	10	11013.1	755.449	11039	3.92409	111.49
52	7.9433	11112.5	827.623	11143.3	4.25934	113.907
53	6.3096	11210.9	911.895	11247.9	4.6502	116.319
54	5.0119	11308.9	1004.12	11353.4	5.07399	118.831
55	3.9811	11420.9	1115.6	11475.3	5.57899	121.288
56	3.1623	11529.3	1246.78	11596.5	6.17202	124.07
57	2.5119	11654.9	1398.27	11738.5	6.84121	126.822
58	1.9953	11777.4	1582.52	11883.3	7.65296	129.46
59	1.5849	11920.2	1805.58	12056.2	8.61327	132.282
60	1.2589	12056.6	2075.9	12234	9.76935	135.284
61	1	12240.5	2406.54	12474.8	11.1228	140.488
62	0.79433	12421.7	2791.88	12731.6	12.6672	143.825
63	0.63096	12599.1	3264.96	13015.3	14.5281	147.572
64	0.50119	12822.5	3856.45	13389.9	16.739	151.484
65	0.39811	13039.8	4529.86	13804.2	19.1566	156.051
66	0.31623	13352	5446.98	14420.3	22.1931	162.688
67	0.25119	13638.5	6483.54	15101.1	25.4258	168.915
68	0.19953	14085	7867.95	16133.6	29.1879	175.417
69	0.15849	14528.1	9411.42	17310.1	32.9355	182.765
70	0.12589	14911.2	11272.3	18692.5	37.0878	191.522
71	0.1	15443.9	13906.2	20782.1	42.001	201.849