Folder: Streamlit_cement/data (part 9)

File: Z_s12_1.3.txt
Index	Frequency (Hz)	Z' (Ω)	-Z'' (Ω)	Z (Ω)	-Phase (°)	Time (s)
1	1000000	2780.54	1896.57	3365.77	34.2974	19.9365
2	794330	3063.07	1737.22	3521.41	29.5597	21.6285
3	630960	3378.04	1606.72	3740.69	25.4375	23.4456
4	501190	3669.92	1506.66	3967.16	22.3202	25.1626
5	398110	3989.95	1349.94	4212.13	18.6925	27.0296
6	316230	4219.56	1233.41	4396.13	16.294	28.7267
7	251190	4336.78	1065.85	4465.84	13.8078	30.4287
8	199530	4516.6	961.369	4617.79	12.0162	32.2707
9	158490	4661.89	854.663	4739.58	10.3887	33.8878
10	125890	4782.37	752.076	4841.15	8.93714	35.7748
11	100000	4876.02	656.557	4920.02	7.66877	37.6118
12	79433	4951.01	570.452	4983.77	6.57259	39.8439
13	63096	5011.91	494.228	5036.22	5.63177	43.1459
14	50119	5063.7	426.939	5081.67	4.81942	45.153
15	39811	5100.66	368.032	5113.92	4.12697	47.035
16	31623	5132.2	318.468	5142.07	3.55081	48.757
17	25119	5158.62	279.557	5166.19	3.10195	50.4391
18	19953	5181.73	246.333	5187.58	2.72172	52.0211
19	15849	5203.65	219.483	5208.28	2.41522	53.8731
20	12589	5221.26	197.821	5225	2.16977	55.5502
21	10000	5238.22	180.518	5241.32	1.97373	57.2872
22	7943.3	5256.58	167.911	5259.27	1.82958	58.8742
23	6309.6	5271.99	158.321	5274.37	1.72011	60.6762
24	5011.9	5284.54	152.041	5286.72	1.648	62.2783
25	3981.1	5303.27	148.182	5305.33	1.60052	64.0453
26	3162.3	5318.05	146.6	5320.07	1.57904	65.6273
27	2511.9	5335.32	147.299	5337.36	1.58144	67.3594
28	1995.3	5351.17	150.014	5353.27	1.60581	68.9764
29	1584.9	5367.7	154.931	5369.93	1.6533	70.6734
30	1258.9	5385.86	162.233	5388.3	1.72534	72.3155
31	1000	5404.49	170.504	5407.18	1.807	74.2025
32	794.33	5425.24	181.408	5428.27	1.91513	75.9395
33	630.96	5448.29	194.004	5451.74	2.03934	77.7616
34	501.19	5474.01	209.263	5478.01	2.18926	79.5586
35	398.11	5500.76	226.809	5505.44	2.3611	81.1906
36	316.23	5527.83	247.004	5533.34	2.55849	82.8427
37	251.19	5557.61	269.557	5564.15	2.7768	84.5297
38	199.53	5590.97	294.767	5598.73	3.01796	86.2867
39	158.49	5626.2	324.542	5635.56	3.30139	87.8888
40	125.89	5664.1	356.657	5675.32	3.60305	89.7458
41	100	5707.3	395.851	5721.02	3.9676	91.4478
42	79.433	5756.64	439.478	5773.4	4.36564	93.2449
43	63.096	5811.92	486.335	5832.24	4.7833	94.9269
44	50.119	5877.45	545.608	5902.72	5.30361	96.9089
45	39.811	5947.19	602.415	5977.62	5.78399	98.776
46	31.623	6029.64	665.7	6066.28	6.3002	100.743
47	25.119	6125.86	734.456	6169.73	6.8368	102.615
48	19.953	6225.13	804.366	6276.88	7.36255	104.762
49	15.849	6335.14	878.013	6395.7	7.89059	107.179
50	12.589	6454.88	956.594	6525.38	8.42971	110.231
51	10	6580.38	1042.42	6662.44	9.00158	112.723
52	7.9433	6700.95	1136.7	6796.68	9.62763	115.445
53	6.3096	6835.69	1241.4	6947.5	10.2931	118.322
54	5.0119	6973.78	1365.55	7106.22	11.079	121.039
55	3.9811	7122.65	1513.32	7281.64	11.995	123.861
56	3.1623	7275.66	1687.29	7468.74	13.0566	126.668
57	2.5119	7441.77	1899.21	7680.3	14.3168	129.591
58	1.9953	7625.47	2149.84	7922.72	15.7447	132.648
59	1.5849	7812.85	2447.85	8187.34	17.3963	135.88
60	1.2589	8027.32	2801.13	8502.01	19.2364	139.257
61	1	8261.37	3248.33	8877.04	21.4645	145.131
62	0.79433	8524.77	3771.12	9321.64	23.8632	148.478
63	0.63096	8818.79	4403.23	9856.95	26.533	152.28
64	0.50119	9115.65	5145.71	10467.7	29.4444	156.477
65	0.39811	9492.59	6085.91	11276	32.6649	161.194
66	0.31623	9907.62	7209.75	12253.2	36.0433	166.266
67	0.25119	10369	8549.01	13438.8	39.5047	172.668
68	0.19953	10826	10172.6	14855.4	43.2179	179.665
69	0.15849	11414.6	12170.2	16685.5	46.8349	187.163
70	0.12589	12098.7	14670.4	19015.7	50.4874	196.25
71	0.1	13014.8	17656.4	21934.8	53.6056	207.027

File: Z_s12_1.4.txt
Index	Frequency (Hz)	Z' (Ω)	-Z'' (Ω)	Z (Ω)	-Phase (°)	Time (s)
1	1000000	2864.66	1972.48	3478.07	34.5497	15.8244
2	794330	3145.24	1780.55	3614.27	29.5146	17.5515
3	630960	3474.58	1671.14	3855.57	25.6858	19.5435
4	501190	3799	1561.09	4107.24	22.3388	21.4955
5	398110	4132.72	1405.89	4365.3	18.7875	23.6476
6	316230	4376.33	1289.12	4562.24	16.4132	25.2946
7	251190	4497.42	1116.49	4633.93	13.9419	27.2316
8	199530	4686.77	1007.99	4793.94	12.1378	28.9487
9	158490	4841.43	896.917	4923.81	10.4956	30.7557
10	125890	4966.03	789.638	5028.42	9.03484	32.4277
11	100000	5064.69	689.136	5111.36	7.74847	34.2048
12	79433	5144.31	599.308	5179.1	6.64496	35.8118
13	63096	5209.57	519.058	5235.37	5.68991	37.6088
14	50119	5259.56	448.046	5278.61	4.8691	39.0908
15	39811	5303.37	386.548	5317.44	4.16876	40.8379
16	31623	5334.6	333.958	5345.04	3.58217	42.5299
17	25119	5361.95	293.11	5369.96	3.12895	44.662
18	19953	5386.52	258.253	5392.71	2.7449	46.459
19	15849	5407.07	229.295	5411.93	2.42826	48.436
20	12589	5428.74	206.541	5432.66	2.17882	50.0281
21	10000	5447.58	188.647	5450.84	1.98333	51.8851
22	7943.3	5464.62	174.66	5467.41	1.83066	53.5171
23	6309.6	5481.86	164.089	5484.32	1.71453	55.3092
24	5011.9	5496.81	156.968	5499.05	1.6357	57.0662
25	3981.1	5513.36	152.361	5515.46	1.58296	58.7982
26	3162.3	5528.1	150.48	5530.14	1.55926	60.2352
27	2511.9	5545.58	150.418	5547.62	1.55371	61.7523
28	1995.3	5557.79	152.738	5559.89	1.5742	63.4393
29	1584.9	5577.61	157.107	5579.83	1.61344	64.9463
30	1258.9	5595.96	163.078	5598.34	1.66925	66.7234
31	1000	5616.07	171.681	5618.7	1.75096	68.5104
32	794.33	5637.34	182.538	5640.29	1.8546	70.4224
33	630.96	5660.95	195.403	5664.33	1.97693	72.1095
34	501.19	5684.36	210.228	5688.25	2.11803	74.0215
35	398.11	5708.98	226.598	5713.48	2.27296	75.6585
36	316.23	5739.16	247.014	5744.47	2.4645	77.5706
37	251.19	5768.09	269.154	5774.37	2.67163	79.2826
38	199.53	5801.05	294.397	5808.52	2.90521	81.0796
39	158.49	5835.84	323.86	5844.82	3.17637	82.7467
40	125.89	5872.67	357.01	5883.51	3.47883	84.6887
41	100	5914.52	394.101	5927.63	3.81214	86.4907
42	79.433	5963.04	439.689	5979.23	4.21711	88.5128
43	63.096	6019.74	493.858	6039.96	4.69003	90.4598
44	50.119	6084.44	547.822	6109.05	5.14484	92.7218
45	39.811	6156.91	604.105	6186.48	5.60383	94.7689
46	31.623	6238.88	669.401	6274.69	6.12413	97.3559
47	25.119	6330.04	738.086	6372.93	6.65069	99.763
48	19.953	6432.9	808.558	6483.52	7.164	102.265
49	15.849	6543.86	880.48	6602.83	7.66315	104.442
50	12.589	6660.22	960.967	6729.19	8.21023	107.069
51	10	6784.25	1046.86	6864.55	8.77201	109.746
52	7.9433	6918.75	1142.09	7012.38	9.37339	112.838
53	6.3096	7053.16	1248.91	7162.88	10.0414	115.995
54	5.0119	7188.82	1370.98	7318.38	10.7972	119.597
55	3.9811	7332.6	1516.56	7487.79	11.6854	123.504
56	3.1623	7494.18	1693.19	7683.08	12.7313	126.941
57	2.5119	7658.95	1902.18	7891.63	13.9478	130.044
58	1.9953	7835.43	2149.62	8124.95	15.3414	133.336
59	1.5849	8029.29	2450.76	8394.98	16.9736	136.688
60	1.2589	8243.16	2809.2	8708.69	18.8187	140.185
61	1	8472.14	3238.32	9069.94	20.9184	144.137
62	0.79433	8740.29	3770.08	9518.73	23.3327	147.924
63	0.63096	9026.37	4367.28	10027.4	25.8194	152.001
64	0.50119	9352.28	5119.5	10661.8	28.6966	156.203
65	0.39811	9673.35	6043.39	11406	31.9949	161.07
66	0.31623	10068.6	7154.92	12351.9	35.3983	166.202
67	0.25119	10549.7	8564.41	13588.4	39.0703	172.039
68	0.19953	11058.9	10112.1	14985.1	42.4395	178.966
69	0.15849	11627.4	12081.3	16767.7	46.0967	186.454
70	0.12589	12260.2	14598.7	19063.9	49.9759	195.431
71	0.1	13181.1	17577.1	21970.3	53.1337	205.938

File: Z_s12_1.5.txt
Index	Frequency (Hz)	Z' (Ω)	-Z'' (Ω)	Z (Ω)	-Phase (°)	Time (s)
1	1000000	2814.2	2016.63	3462.16	35.625	21.0585
2	794330	3118.57	1820.55	3611.08	30.2753	23.4006
3	630960	3465.16	1725.89	3871.17	26.4765	25.6076
4	501190	3810.93	1604.71	4135.01	22.835	27.8946
5	398110	4142.84	1451.15	4389.64	19.3043	30.0967
6	316230	4388.79	1323.88	4584.12	16.786	32.2337
7	251190	4515.35	1140.96	4657.27	14.181	34.5208
8	199530	4709.79	1028.34	4820.75	12.3167	36.4528
9	158490	4863.51	912.605	4948.39	10.6276	38.5398
10	125890	4986.03	801.443	5050.03	9.13148	40.5469
11	100000	5085.43	698.819	5133.22	7.82434	42.7489
12	79433	5166.95	606.903	5202.47	6.69919	44.876
13	63096	5230.31	524.663	5256.55	5.7283	46.983
14	50119	5282.41	453.105	5301.81	4.90261	49.34
15	39811	5324.32	390.386	5338.61	4.1935	51.5221
16	31623	5357.23	336.941	5367.82	3.59885	53.7341
17	25119	5385.75	295.27	5393.84	3.13806	55.6512
18	19953	5408.15	260.033	5414.39	2.75276	57.7482
19	15849	5432.66	230.813	5437.56	2.43282	59.7552
20	12589	5451.19	207.283	5455.13	2.17763	61.8023
21	10000	5467.69	189.559	5470.97	1.98559	63.8293
22	7943.3	5487.04	174.637	5489.82	1.82295	65.9313
23	6309.6	5500.93	164.249	5503.39	1.71025	68.2534
24	5011.9	5516.15	156.473	5518.36	1.62483	70.7504
25	3981.1	5531.8	151.575	5533.88	1.56955	72.8475
26	3162.3	5549.62	149.157	5551.62	1.53956	74.9195
27	2511.9	5565.3	149.001	5567.29	1.53363	76.9315
28	1995.3	5579.24	150.995	5581.29	1.55026	79.1236
29	1584.9	5595.72	154.951	5597.87	1.58617	80.9406
30	1258.9	5614.96	160.614	5617.26	1.63848	83.1027
31	1000	5635.65	169.044	5638.18	1.7181	84.8547
32	794.33	5656.82	178.927	5659.65	1.81168	87.1967
33	630.96	5678.85	191.494	5682.08	1.93132	89.1588
34	501.19	5700.19	205.473	5703.9	2.06443	91.3108
35	398.11	5726.68	222.061	5730.98	2.22062	93.2629
36	316.23	5753.65	241.343	5758.71	2.40192	95.1999
37	251.19	5782.13	262.948	5788.11	2.60379	97.3369
38	199.53	5814.77	288.495	5821.92	2.84035	99.374
39	158.49	5846.4	316.674	5854.97	3.10043	101.586
40	125.89	5885.38	348.768	5895.7	3.39139	103.548
41	100	5925.04	388.579	5937.77	3.75223	105.875
42	79.433	5969.58	432.029	5985.2	4.13938	107.732
43	63.096	6030.33	487.119	6049.98	4.61822	109.759
44	50.119	6099.15	537.169	6122.76	5.0332	112.251
45	39.811	6163.1	595.906	6191.84	5.52273	114.423
46	31.623	6244.26	661.16	6279.17	6.04412	116.825
47	25.119	6334.91	727.199	6376.51	6.54845	119.262
48	19.953	6432.14	797.445	6481.38	7.06736	121.984
49	15.849	6545.88	870.766	6603.55	7.57728	124.856
50	12.589	6659.87	948.782	6727.11	8.10794	127.223
51	10	6779.33	1032.56	6857.51	8.66015	130.126
52	7.9433	6909.6	1129.14	7001.26	9.28101	133.258
53	6.3096	7044.3	1230.19	7150.91	9.906	136.545
54	5.0119	7181.32	1354.88	7308.01	10.6843	139.737
55	3.9811	7320.1	1499.65	7472.13	11.5779	142.864
56	3.1623	7478.75	1673.5	7663.7	12.6131	146.186
57	2.5119	7642.54	1878.52	7870.02	13.8094	149.438
58	1.9953	7817.5	2123.08	8100.66	15.1939	152.71
59	1.5849	8010.04	2420.35	8367.73	16.813	156.222
60	1.2589	8228	2762.61	8679.4	18.5598	159.869
61	1	8454.56	3208.37	9042.85	20.7809	166.048
62	0.79433	8701.84	3726.08	9466.03	23.1803	170.085
63	0.63096	9005.04	4339.91	9996.27	25.7314	174.422
64	0.50119	9295.83	5078.4	10592.6	28.6482	178.819
65	0.39811	9645.68	5996.69	11357.8	31.8691	183.787
66	0.31623	10015.4	7089.16	12270.5	35.2917	189.094
67	0.25119	10450.3	8444.4	13435.7	38.94	195.421
68	0.19953	11014.5	10074.4	14926.9	42.4476	203.013
69	0.15849	11543.4	12084.2	16711.6	46.3113	211.025
70	0.12589	12219.6	14501.3	18963.3	49.8808	220.362
71	0.1	13070	17422.6	21780	53.1237	231.384

File: Z_s12_1.txt
Index	Frequency (Hz)	Z' (Ω)	-Z'' (Ω)	Z (Ω)	-Phase (°)	Time (s)
1	1000000	2348.33	1911.98	3028.25	39.1519	24.4356
2	794330	2725.81	1685.57	3204.87	31.7317	27.4776
3	630960	3084.06	1695.6	3519.45	28.8017	30.1547
4	501190	3429.17	1567.19	3770.32	24.5612	32.4767
5	398110	3743.48	1372.95	3987.31	20.141	35.2988
6	316230	3965.15	1222.8	4149.42	17.1391	38.1908
7	251190	4065.97	1037.4	4196.23	14.3132	41.0329
8	199530	4228.84	922.535	4328.29	12.3065	42.9399
9	158490	4356.12	812.214	4431.19	10.5617	45.182
10	125890	4461.71	710.99	4518	9.05418	47.879
11	100000	4544.45	618.744	4586.38	7.75336	50.1561
12	79433	4616.17	537.694	4647.38	6.6439	52.5031
13	63096	4670.51	465.345	4693.64	5.68986	56.4202
14	50119	4717.85	402.718	4735	4.87897	58.6422
15	39811	4755.74	347.877	4768.44	4.18368	60.8293
16	31623	4785.1	301.465	4794.58	3.60492	62.9813
17	25119	4811.1	265.326	4818.41	3.15659	65.6583
18	19953	4833.78	235.376	4839.51	2.78775	67.9504
19	15849	4855.34	210.553	4859.9	2.48309	70.1574
20	12589	4874.3	190.907	4878.03	2.2429	71.9345
21	10000	4893.58	175.835	4896.74	2.05785	74.1815
22	7943.3	4909.9	164.678	4912.66	1.92097	76.5035
23	6309.6	4926.9	157.128	4929.4	1.82665	78.6606
24	5011.9	4944.72	152.221	4947.06	1.76327	81.3226
25	3981.1	4960.6	150.175	4962.87	1.73401	83.8747
26	3162.3	4977.27	150.339	4979.54	1.7301	86.1717
27	2511.9	4997.09	153.03	4999.44	1.75406	88.7738
28	1995.3	5014.58	157.969	5017.07	1.80433	91.5658
29	1584.9	5034.24	164.822	5036.94	1.8752	95.6479
30	1258.9	5056.81	173.495	5059.78	1.965	97.4749
31	1000	5078.36	184.743	5081.72	2.08341	100.092
32	794.33	5102.59	198.377	5106.45	2.22641	102.659
33	630.96	5130.96	214.09	5135.42	2.38928	105.176
34	501.19	5155.93	231.99	5161.15	2.57627	108.238
35	398.11	5187.15	251.92	5193.26	2.78046	110.59
36	316.23	5221.39	274.963	5228.63	3.01447	113.227
37	251.19	5259.17	300.315	5267.74	3.26821	116.064
38	199.53	5298.98	327.414	5309.09	3.5357	118.341
39	158.49	5341.04	358.006	5353.03	3.83475	120.863
40	125.89	5387.3	391.512	5401.51	4.15656	123.185
41	100	5439.53	429.882	5456.49	4.51865	125.912
42	79.433	5493.42	472.886	5513.74	4.92002	128.725
43	63.096	5561.17	524.971	5585.89	5.3927	131.522
44	50.119	5625.33	574.762	5654.62	5.83389	134.504
45	39.811	5708.05	631.776	5742.91	6.31588	137.526
46	31.623	5797.79	695.583	5839.37	6.84129	140.588
47	25.119	5895.69	759.916	5944.46	7.34456	145.45
48	19.953	6002.69	831.104	6059.95	7.88278	149.197
49	15.849	6115.52	904.007	6181.97	8.40867	153.879
50	12.589	6237.45	983.049	6314.44	8.95639	157.161
51	10	6362.2	1069.35	6451.44	9.54099	160.743
52	7.9433	6489.66	1164.57	6593.32	10.1734	164.35
53	6.3096	6631.65	1277.27	6753.53	10.9018	167.307
54	5.0119	6771.7	1407.22	6916.37	11.7395	170.789
55	3.9811	6925.68	1562.93	7099.85	12.717	174.276
56	3.1623	7085.81	1749.03	7298.48	13.8655	177.818
57	2.5119	7256.77	1972.11	7519.97	15.2036	181.445
58	1.9953	7447.7	2234.79	7775.76	16.7026	185.328
59	1.5849	7649.99	2551.65	8064.32	18.4461	189.285
60	1.2589	7883.71	2932.57	8411.47	20.4042	192.937
61	1	8130.98	3389.49	8809.17	22.6294	197.869
62	0.79433	8415.59	3934.58	9289.94	25.0577	203.241
63	0.63096	8728.47	4599.36	9866.12	27.7864	208.743
64	0.50119	9079.51	5357.44	10542.3	30.5431	213.61
65	0.39811	9499.45	6322.97	11411.4	33.6483	219.437
66	0.31623	9947.99	7456.63	12432.4	36.8538	225.659
67	0.25119	10440.7	8839.78	13680.2	40.2536	232.631
68	0.19953	11003.8	10547.5	15242.5	43.787	240.474
69	0.15849	11768.6	12546.2	17202	46.8317	249.796
70	0.12589	12497	15042.1	19556.1	50.2801	259.933
71	0.1	13502.1	18026.8	22522.7	53.1668	271.055

File: Z_s13_1.2.txt
Index	Frequency (Hz)	Z' (Ω)	-Z'' (Ω)	Z (Ω)	-Phase (°)	Time (s)
1	1000000	4553.92	4750.41	6580.62	46.2098	21.3335
2	794330	5479.7	4309.16	6971.08	38.181	22.9405
3	630960	6453.19	4184.97	7691.4	32.9639	24.4776
4	501190	7377.79	4057.73	8420.03	28.8105	26.2946
5	398110	8533.27	3964.22	9409.13	24.9177	27.8516
6	316230	9272.55	3744.73	10000.2	21.9914	29.5987
7	251190	9752.97	3359.31	10315.3	19.0057	31.1857
8	199530	10351.7	3104.45	10807.2	16.6939	32.8927
9	158490	10863.1	2821.91	11223.6	14.5619	34.4248
10	125890	11283.5	2528.57	11563.3	12.631	36.2318
11	100000	11634	2240.89	11847.9	10.9025	37.9938
12	79433	11924.7	1972.91	12086.8	9.39432	39.7459
13	63096	12159.6	1721.89	12280.9	8.05991	41.4129
14	50119	12354.8	1493.48	12444.8	6.8926	43.2499
15	39811	12517.4	1284.77	12583.2	5.86023	44.9119
16	31623	12630.3	1102.31	12678.3	4.98782	46.524
17	25119	12733.9	958.265	12769.9	4.30357	48.276
18	19953	12818.7	832.482	12845.7	3.71573	49.858
19	15849	12892.2	725.251	12912.6	3.21979	51.5351
20	12589	12952.6	634.336	12968.2	2.80374	53.1271
21	10000	12980.1	547.427	12991.6	2.41498	54.9241
22	7943.3	13036.9	489.13	13046.1	2.14867	56.5312
23	6309.6	13084.4	440.927	13091.8	1.93006	58.3932
24	5011.9	13128.5	400.847	13134.6	1.74884	59.9852
25	3981.1	13168.8	367.988	13173.9	1.60066	61.8273
26	3162.3	13205.6	340.529	13210	1.47715	63.3743
27	2511.9	13248.5	320.117	13252.4	1.38414	65.1813
28	1995.3	13278.6	302.875	13282.1	1.30665	66.7583
29	1584.9	13310.4	290.186	13313.6	1.24893	68.4904
30	1258.9	13348.2	282.033	13351.2	1.21042	70.1324
31	1000	13381.9	275.166	13384.8	1.17798	72.0744
32	794.33	13408.5	271.829	13411.2	1.1614	73.7865
33	630.96	13446.5	272.287	13449.2	1.16006	75.6035
34	501.19	13474.2	275.688	13477	1.17213	77.2005
35	398.11	13510.8	282.536	13513.7	1.19799	78.9776
36	316.23	13550.5	291.139	13553.6	1.23084	80.5996
37	251.19	13578.1	305.783	13581.5	1.2901	82.4616
38	199.53	13618.1	323.375	13621.9	1.36029	84.1087
39	158.49	13651	344.13	13655.3	1.44407	85.9607
40	125.89	13695.2	369.636	13700.2	1.54605	87.7027
41	100	13733.3	399.332	13739.2	1.66555	89.3698
42	79.433	13785.3	439.964	13792.3	1.828	91.2418
43	63.096	13836.1	470.328	13844.1	1.94689	93.0388
44	50.119	13900.5	536.837	13910.8	2.21167	94.9509
45	39.811	13961.7	585.451	13974	2.40115	96.7479
46	31.623	14034.1	647.583	14049	2.64195	98.5449
47	25.119	14122.7	709.397	14140.5	2.87561	100.512
48	19.953	14227	791.404	14249	3.18391	102.729
49	15.849	14325.5	872.228	14352.1	3.48422	105.271
50	12.589	14442	956.511	14473.6	3.78924	107.438
51	10	14565	1047.17	14602.6	4.11227	110.505
52	7.9433	14693.4	1151.79	14738.5	4.48216	113.267
53	6.3096	14841.3	1261.35	14894.8	4.85783	116.039
54	5.0119	14987.7	1389.42	15052	5.2964	118.931
55	3.9811	15151.2	1533.58	15228.6	5.7797	121.578
56	3.1623	15327.8	1699.74	15421.8	6.32781	124.385
57	2.5119	15515.3	1895.79	15630.7	6.96635	127.392
58	1.9953	15718.8	2123.19	15861.6	7.69257	130.46
59	1.5849	15931	2391.83	16109.5	8.53845	133.617
60	1.2589	16199.8	2704.71	16424	9.47866	136.869
61	1	16428.1	3076.88	16713.7	10.6083	140.586
62	0.79433	16710.5	3530.95	17079.5	11.9311	144.373
63	0.63096	17025.2	4058.08	17502.2	13.4067	148.2
64	0.50119	17303.8	4705.13	17932.1	15.2117	152.352
65	0.39811	17686.3	5442.01	18504.6	17.103	156.814
66	0.31623	18073.3	6382.18	19167	19.4495	161.911
67	0.25119	18519.9	7646.25	20036.2	22.4341	167.743
68	0.19953	19018.1	8913.66	21003.4	25.1121	174.235
69	0.15849	19604.6	10565.6	22270.5	28.3217	181.882
70	0.12589	20258.6	12649.3	23883.4	31.9803	190.935
71	0.1	21295.7	15122.5	26119	35.3793	201.432

File: Z_s13_1.3.txt
Index	Frequency (Hz)	Z' (Ω)	-Z'' (Ω)	Z (Ω)	-Phase (°)	Time (s)
1	1000000	4412.81	4888.68	6585.75	47.9288	16.2994
2	794330	5338.05	4501.98	6983.02	40.1435	17.9564
3	630960	6406.07	4360.88	7749.51	34.2447	19.7535
4	501190	7353.4	4262.6	8499.55	30.0999	21.5205
5	398110	8587.57	4150.74	9538.08	25.7965	23.4625
6	316230	9353.25	3923.6	10142.9	22.7576	25.0696
7	251190	9864.78	3516.88	10472.9	19.6216	28.0436
8	199530	10489.7	3247.24	10980.8	17.2007	30.0907
9	158490	11020.1	2948.81	11407.8	14.9805	31.8777
10	125890	11457.7	2640.75	11758.1	12.9787	33.6497
11	100000	11827.9	2339.28	12057	11.1874	35.4618
12	79433	12127.9	2052.84	12300.4	9.60716	37.1438
13	63096	12365	1790.4	12494	8.2389	39.0708
14	50119	12566.9	1551.61	12662.4	7.03855	41.1579
15	39811	12728.1	1331.88	12797.5	5.97376	42.7099
16	31623	12846.9	1139.42	12897.3	5.06845	44.1069
17	25119	12943.5	990.959	12981.4	4.37803	45.494
18	19953	13038.6	859.142	13066.9	3.7699	46.816
19	15849	13108.3	747.239	13129.6	3.26261	48.233
20	12589	13173.7	653.16	13189.9	2.83843	49.65
21	10000	13207	562.323	13219	2.43804	51.1421
22	7943.3	13256.3	501.828	13265.8	2.16794	52.5491
23	6309.6	13309.5	451.244	13317.2	1.9418	54.0561
24	5011.9	13357.3	409.872	13363.6	1.75759	55.4381
25	3981.1	13397.2	374.823	13402.5	1.60258	56.8552
26	3162.3	13433.2	346.774	13437.6	1.47875	58.2322
27	2511.9	13466.5	324.017	13470.4	1.37832	59.5742
28	1995.3	13499	306.318	13502.5	1.29992	61.0662
29	1584.9	13536	293.153	13539.2	1.24068	62.6783
30	1258.9	13563.9	283.172	13566.9	1.19598	64.2453
31	1000	13596.9	276.516	13599.7	1.16505	65.6523
32	794.33	13634.3	272.879	13637.1	1.14657	67.1794
33	630.96	13660.2	271.895	13662.9	1.14027	69.5414
34	501.19	13695.6	274.922	13698.4	1.14999	71.5634
35	398.11	13730.8	280.501	13733.7	1.17031	73.2105
36	316.23	13757.4	289.173	13760.5	1.20415	74.9975
37	251.19	13794.2	302.989	13797.6	1.25829	76.5995
38	199.53	13822.2	319.32	13825.9	1.32341	78.0666
39	158.49	13861.4	339.825	13865.6	1.40438	80.1536
40	125.89	13901.4	367.783	13906.3	1.51549	82.1806
41	100	13949.5	393.869	13955	1.61734	83.6527
42	79.433	13986.4	433.3	13993.1	1.77447	85.3497
43	63.096	14021.3	471.592	14029.2	1.92636	86.8717
44	50.119	14111.4	531.493	14121.4	2.15698	88.7588
45	39.811	14159.8	576.562	14171.5	2.3317	90.3758
46	31.623	14242.7	630.269	14256.6	2.53381	93.0928
47	25.119	14317.2	705.87	14334.6	2.82253	95.0199
48	19.953	14415.1	780.452	14436.2	3.09905	96.9769
49	15.849	14509.8	859.77	14535.2	3.39107	99.0639
50	12.589	14620.3	950.707	14651.2	3.7205	101.161
51	10	14744.5	1036.35	14780.8	4.02057	103.643
52	7.9433	14872.8	1141.12	14916.5	4.38743	106.125
53	6.3096	15018	1253.08	15070.2	4.76962	109.322
54	5.0119	15159	1377.75	15221.5	5.19315	112.179
55	3.9811	15322.7	1523.93	15398.3	5.67974	115.291
56	3.1623	15489.9	1690.88	15581.9	6.22977	118.178
57	2.5119	15685.4	1886.67	15798.4	6.8587	120.895
58	1.9953	15880.8	2107.92	16020.1	7.56089	123.967
59	1.5849	16092.6	2374.78	16266.9	8.39454	127.419
60	1.2589	16336.8	2745.94	16566	9.54129	132.839
61	1	16591.2	3054.16	16870	10.4304	138.238
62	0.79433	16866.4	3504.27	17226.6	11.7371	141.6
63	0.63096	17161.8	4016.34	17625.5	13.1718	145.522
64	0.50119	17454.3	4667.13	18067.5	14.9702	149.624
65	0.39811	17858	5457.29	18673.2	16.9928	154.511
66	0.31623	18216.8	6421.83	19315.6	19.4187	159.718
67	0.25119	18708	7452.19	20137.6	21.7195	165.575
68	0.19953	19247.2	8928.49	21217.3	24.8859	172.267
69	0.15849	19800	10610.7	22463.9	28.1865	180.064
70	0.12589	20571.7	12529.1	24086.8	31.3432	189.012
71	0.1	21173.8	14746.4	25802.8	34.8551	199.654

File: Z_s13_1.4.txt
Index	Frequency (Hz)	Z' (Ω)	-Z'' (Ω)	Z (Ω)	-Phase (°)	Time (s)
1	1000000	4411.45	5046.26	6702.66	48.84	21.5606
2	794330	5480.5	4652.25	7188.83	40.327	23.2076
3	630960	6537.86	4508.75	7941.82	34.5916	25.1646
4	501190	7541.36	4405.77	8734.01	30.2941	28.6617
5	398110	8847.17	4309.09	9840.77	25.9688	30.7037
6	316230	9657.09	4081.11	10484	22.9091	32.1008
7	251190	10185.1	3683.46	10830.7	19.8826	34.5048
8	199530	10848.1	3408.49	11371	17.4427	35.8668
9	158490	11407.5	3098.51	11820.8	15.1961	37.2439
10	125890	11866.1	2774.94	12186.2	13.1624	38.7509
11	100000	12255.4	2459.12	12499.7	11.346	40.6679
12	79433	12576.4	2160.43	12760.7	9.74734	42.1099
13	63096	12832.4	1884.73	12970	8.35546	43.532
14	50119	13046.3	1631.73	13147.9	7.12911	47.869
15	39811	13216.3	1400.9	13290.3	6.05067	49.5661
16	31623	13340.2	1198.84	13394	5.13517	51.7131
17	25119	13452.2	1042.74	13492.5	4.43241	53.5651
18	19953	13543.8	904.824	13574	3.82211	55.9972
19	15849	13626.6	785.433	13649.2	3.29887	58.2542
20	12589	13691.2	686.308	13708.4	2.8697	59.7363
21	10000	13723.9	589.275	13736.5	2.45865	61.8783
22	7943.3	13781	526.085	13791	2.18618	63.7203
23	6309.6	13823.8	471.792	13831.9	1.95468	65.2374
24	5011.9	13873.3	426.748	13879.8	1.76189	66.5794
25	3981.1	13911.3	389.828	13916.7	1.60515	68.5114
26	3162.3	13951.8	360.606	13956.4	1.48057	69.8935
27	2511.9	14000.6	336.557	14004.7	1.37705	72.2005
28	1995.3	14029.2	318.081	14032.9	1.29883	73.5675
29	1584.9	14059.3	303.485	14062.5	1.2366	74.8395
30	1258.9	14101.3	291.521	14104.4	1.18432	76.1016
31	1000	14141.1	284.737	14144	1.15351	77.5236
32	794.33	14166.5	280.349	14169.3	1.13371	79.1406
33	630.96	14205.5	280.684	14208.3	1.13195	80.5877
34	501.19	14234.3	283.084	14237.1	1.13932	82.1597
35	398.11	14275.6	288.379	14278.5	1.15726	83.4017
36	316.23	14308.5	294.926	14311.5	1.18081	84.8337
37	251.19	14340.4	308.94	14343.7	1.23415	86.2458
38	199.53	14379	324.821	14382.7	1.29409	87.6828
39	158.49	14409.2	346.741	14413.4	1.37849	89.0348
40	125.89	14455.7	369.775	14460.5	1.4653	90.4518
41	100	14492.8	406.41	14498.5	1.60628	91.8739
42	79.433	14539.1	438.128	14545.7	1.72605	93.3509
43	63.096	14598.8	467.14	14606.2	1.83276	95.2679
44	50.119	14646.4	512.778	14655.3	2.00514	96.955
45	39.811	14722.3	587.2	14734	2.28403	98.502
46	31.623	14791	650.457	14805.3	2.51805	100.204
47	25.119	14879.9	717.806	14897.2	2.76181	102.116
48	19.953	14961	792.498	14982	3.03218	104.203
49	15.849	15080.1	876.648	15105.6	3.32701	106.765
50	12.589	15191.4	962.672	15221.9	3.62596	109.507
51	10	15313.6	1057.73	15350.1	3.95122	111.934
52	7.9433	15456.5	1164.46	15500.3	4.3084	114.331
53	6.3096	15607.7	1283.56	15660.4	4.70136	116.868
54	5.0119	15748.7	1409.53	15811.6	5.11442	119.985
55	3.9811	15921.7	1556.02	15997.5	5.58178	122.522
56	3.1623	16100.4	1724.75	16192.5	6.11447	125.174
57	2.5119	16290.5	1921.26	16403.4	6.72625	127.982
58	1.9953	16491.2	2148.81	16630.6	7.42381	131.219
59	1.5849	16715.6	2417.7	16889.6	8.23002	134.051
60	1.2589	16943.8	2732.99	17162.8	9.16278	137.088
61	1	17234.9	3116.41	17514.4	10.2495	140.44
62	0.79433	17533.4	3548.52	17888.9	11.4413	143.772
63	0.63096	17816.1	4081.71	18277.6	12.9039	147.344
64	0.50119	18155.7	4703.34	18755	14.5236	151.946
65	0.39811	18517.3	5521.82	19323.1	16.6045	156.283
66	0.31623	18974.4	6500.59	20057.1	18.9113	161.31
67	0.25119	19343.9	7607.68	20786.1	21.469	166.862
68	0.19953	19874.7	8909.49	21780.3	24.1459	173.209
69	0.15849	20455.3	10585.3	23031.9	27.3609	180.572
70	0.12589	21132.9	12796.9	24705.4	31.1968	189.224
71	0.1	22126.5	15018.2	26741.9	34.1665	199.956