Folder: Streamlit_cement/data (part 4)

File: Z_s5_1.3.txt
Index	Frequency (Hz)	Z' (Ω)	-Z'' (Ω)	Z (Ω)	-Phase (°)	Time (s)
1	1000000	3318.13	2379.29	4083.01	35.6427	36.1898
2	794330	3645.47	2137.71	4226.02	30.3874	37.8668
3	630960	4058.82	1960.48	4507.5	25.7813	39.6338
4	501190	4436.57	1816.16	4793.91	22.2623	41.3409
5	398110	4856.77	1634.31	5124.37	18.5982	43.0579
6	316230	5136.92	1487.87	5348.06	16.1533	44.6099
7	251190	5270.76	1279.53	5423.84	13.6451	46.317
8	199530	5486.64	1150.02	5605.87	11.8381	47.889
9	158490	5658.92	1018.17	5749.79	10.1997	49.631
10	125890	5800.83	892.167	5869.04	8.74357	51.2181
11	100000	5909.94	774.617	5960.49	7.4672	53.1001
12	79433	5997.7	669.833	6034.99	6.37248	54.7321
13	63096	6069.82	576.617	6097.14	5.42667	56.4442
14	50119	6123.43	493.996	6143.32	4.61225	58.1462
15	39811	6172.26	422.211	6186.68	3.9132	59.9682
16	31623	6203.83	361.055	6214.33	3.33078	61.7003
17	25119	6231.88	313.123	6239.74	2.87643	63.4273
18	19953	6259.34	272.196	6265.26	2.49001	65.1443
19	15849	6280.51	238.362	6285.03	2.17348	66.9264
20	12589	6299.9	210.918	6303.43	1.91752	68.5384
21	10000	6318.05	188.678	6320.87	1.71053	70.3054
22	7943.3	6334.2	170.48	6336.5	1.5417	72.0474
23	6309.6	6349.18	156.145	6351.1	1.40879	73.6545
24	5011.9	6365.29	144.923	6366.94	1.30427	75.4765
25	3981.1	6375.41	136.361	6376.87	1.22529	77.1035
26	3162.3	6389.38	130.003	6390.71	1.16562	78.7606
27	2511.9	6405.31	125.953	6406.54	1.12651	80.4526
28	1995.3	6415.77	123.654	6416.96	1.10415	82.3046
29	1584.9	6428.96	124.041	6430.16	1.10534	83.7867
30	1258.9	6442.52	125.931	6443.75	1.11981	85.5237
31	1000	6455.12	129.628	6456.42	1.15042	87.1957
32	794.33	6470.78	136.082	6472.21	1.20476	89.0928
33	630.96	6486.57	144.813	6488.18	1.27892	90.6748
34	501.19	6503.54	156.5	6505.42	1.37849	92.6318
35	398.11	6521.1	170.461	6523.33	1.49737	94.1689
36	316.23	6539.76	187.518	6542.45	1.64242	95.9309
37	251.19	6561.97	207.546	6565.25	1.81158	97.6829
38	199.53	6587.91	230.406	6591.94	2.00305	99.49
39	158.49	6615.19	255.339	6620.12	2.21046	101.072
40	125.89	6647.35	283.132	6653.38	2.43893	102.949
41	100	6685.42	313.6	6692.77	2.68566	104.591
42	79.433	6726.09	345.537	6734.96	2.94085	106.548
43	63.096	6776.95	381.716	6787.7	3.22381	108.7
44	50.119	6828.87	417.513	6841.62	3.49867	110.937
45	39.811	6883.7	452.47	6898.56	3.76068	112.819
46	31.623	6943.41	491.798	6960.8	4.05146	114.846
47	25.119	7008	536.007	7028.47	4.37375	116.978
48	19.953	7076.07	588.949	7100.54	4.75782	119.13
49	15.849	7150.59	645.312	7179.65	5.15674	121.387
50	12.589	7220.87	707.452	7255.45	5.59559	123.674
51	10	7301.75	777.539	7343.03	6.07833	126.256
52	7.9433	7388.73	863.201	7438.98	6.66347	129.089
53	6.3096	7475.58	960.476	7537.03	7.32136	131.741
54	5.0119	7568.75	1077.23	7645.02	8.10029	134.468
55	3.9811	7672.2	1220.87	7768.73	9.04158	137.29
56	3.1623	7777.46	1386.48	7900.08	10.1079	140.212
57	2.5119	7892.15	1587.61	8050.25	11.374	143.169
58	1.9953	8004.17	1838.72	8212.66	12.9376	146.436
59	1.5849	8145.73	2139.05	8421.91	14.7135	149.698
60	1.2589	8283.03	2502.47	8652.8	16.8106	153.085
61	1	8441.91	2963.33	8946.91	19.3424	156.867
62	0.79433	8640.66	3523.65	9331.52	22.1856	160.394
63	0.63096	8827.35	4196.34	9774.01	25.4254	164.456
64	0.50119	9038.72	5030.49	10344.3	29.0981	168.543
65	0.39811	9333.46	6038.18	11116.3	32.9004	173.11
66	0.31623	9660.34	7328.87	12125.8	37.186	178.467
67	0.25119	10005.3	8814.45	13334.2	41.3794	184.33
68	0.19953	10497.5	10697.7	14987.9	45.5412	190.702
69	0.15849	11045.9	12983.7	17046.6	49.6104	198.319
70	0.12589	11641.6	15753.3	19588.1	53.536	207.151
71	0.1	12399.8	19301.6	22941.4	57.2824	217.688

File: Z_s5_1.4.txt
Index	Frequency (Hz)	Z' (Ω)	-Z'' (Ω)	Z (Ω)	-Phase (°)	Time (s)
1	1000000	3462.24	2476.39	4256.71	35.5746	27.6796
2	794330	3811.74	2200.23	4401.18	29.9946	29.4567
3	630960	4247.57	2031.06	4708.19	25.5557	31.1187
4	501190	4644.06	1879.59	5010.01	22.0346	33.0407
5	398110	5077.97	1686.57	5350.73	18.3731	34.7178
6	316230	5366.98	1533.92	5581.88	15.9503	36.4348
7	251190	5506.38	1323.73	5663.26	13.5174	37.9818
8	199530	5729.4	1189.58	5851.59	11.7295	39.8239
9	158490	5909.84	1053.01	6002.92	10.1029	41.4309
10	125890	6055.23	922.356	6125.08	8.66093	43.3829
11	100000	6166.81	800.972	6218.61	7.40039	45.805
12	79433	6260.33	692.442	6298.51	6.31171	47.967
13	63096	6336.18	596.064	6364.16	5.37418	50.0441
14	50119	6392.31	510.801	6412.69	4.56872	52.2711
15	39811	6440.55	436.471	6455.32	3.87696	54.0181
16	31623	6475.45	372.841	6486.17	3.29532	55.5352
17	25119	6505.75	323.891	6513.8	2.85014	57.4072
18	19953	6533.03	281.742	6539.1	2.4694	59.0992
19	15849	6554.44	246.816	6559.08	2.15653	60.9363
20	12589	6577.03	217.765	6580.64	1.89637	62.8683
21	10000	6593.67	194.537	6596.54	1.68994	65.6053
22	7943.3	6614.45	175.817	6616.78	1.52261	67.9224
23	6309.6	6630.28	160.818	6632.23	1.38944	70.3444
24	5011.9	6644.01	148.745	6645.68	1.28251	72.8965
25	3981.1	6659.81	139.427	6661.27	1.19935	74.9935
26	3162.3	6673.73	132.369	6675.05	1.13627	77.0756
27	2511.9	6684.7	127.124	6685.91	1.08947	79.2826
28	1995.3	6702.19	124.487	6703.35	1.06409	80.9896
29	1584.9	6713.76	124.295	6714.91	1.06062	83.4117
30	1258.9	6730.05	124.355	6731.19	1.05857	85.3237
31	1000	6743.37	128.786	6744.6	1.09411	87.5557
32	794.33	6755.86	134.417	6757.2	1.13983	89.5778
33	630.96	6772.07	142.847	6773.58	1.20839	91.4898
34	501.19	6787.93	153.521	6789.67	1.29563	94.0119
35	398.11	6805.62	166.745	6807.66	1.40353	96.1139
36	316.23	6826.76	183.606	6829.23	1.5406	98.636
37	251.19	6846.45	202.505	6849.44	1.69421	101.023
38	199.53	6871.88	223.98	6875.53	1.86682	102.875
39	158.49	6898.68	249.748	6903.2	2.07333	104.502
40	125.89	6931.12	277.19	6936.66	2.29016	106.054
41	100	6969.44	306.635	6976.18	2.51922	107.381
42	79.433	7009.65	339.285	7017.85	2.7711	108.843
43	63.096	7054.1	372.959	7063.96	3.02648	110.36
44	50.119	7105.27	405.403	7116.83	3.26557	112.007
45	39.811	7164.67	446.596	7178.58	3.56681	113.569
46	31.623	7221.86	489.679	7238.44	3.87901	115.241
47	25.119	7287.86	530.147	7307.12	4.16059	116.843
48	19.953	7355.71	581.122	7378.63	4.51715	118.72
49	15.849	7425.89	637.905	7453.23	4.90982	120.832
50	12.589	7505.63	697.842	7538.01	5.31185	122.909
51	10	7585.05	768.479	7623.88	5.78518	125.176
52	7.9433	7674.54	851.653	7721.65	6.33227	127.678
53	6.3096	7760.26	944.099	7817.48	6.93641	130.056
54	5.0119	7853.76	1058.05	7924.71	7.67262	132.508
55	3.9811	7959.09	1191.25	8047.75	8.51237	135.1
56	3.1623	8064.24	1353.65	8177.06	9.52873	137.572
57	2.5119	8181.08	1548.64	8326.36	10.719	140.244
58	1.9953	8294.03	1783.15	8483.55	12.1335	142.916
59	1.5849	8430.72	2072.81	8681.8	13.813	145.678
60	1.2589	8566.05	2423.8	8902.36	15.7991	148.545
61	1	8717.4	2860.13	9174.6	18.1644	151.817
62	0.79433	8913.07	3391.04	9536.35	20.8297	155.119
63	0.63096	9084.17	4025.16	9936	23.8979	158.666
64	0.50119	9298.81	4845.2	10485.4	27.522	162.573
65	0.39811	9530.86	5824.04	11169.5	31.4279	166.825
66	0.31623	9858.31	7081.12	12137.9	35.6893	171.587
67	0.25119	10194	8491.46	13267.3	39.7939	177.124
68	0.19953	10668.8	10293	14824.6	43.973	183.452
69	0.15849	11135.9	12495.6	16737.7	48.2929	190.729
70	0.12589	11664	15298.9	19238.1	52.6779	199.301
71	0.1	12524.7	18570.8	22399.6	56.003	209.503

File: Z_s5_1.5.txt
Index	Frequency (Hz)	Z' (Ω)	-Z'' (Ω)	Z (Ω)	-Phase (°)	Time (s)
1	1000000	3391.16	2575.34	4258.21	37.214	22.0255
2	794330	3757.5	2352.41	4433.13	32.0489	23.7476
3	630960	4246.64	2139.11	4754.97	26.7353	25.7846
4	501190	4655.42	2001.77	5067.54	23.2671	27.7016
5	398110	5121.1	1786.04	5423.62	19.2267	29.7737
6	316230	5427.98	1619.05	5664.3	16.6087	31.5757
7	251190	5578.82	1389.33	5749.22	13.9843	33.5327
8	199530	5809.84	1244.4	5941.61	12.0895	35.4748
9	158490	5990.23	1098.04	6090.04	10.3873	37.2918
10	125890	6140.57	959.939	6215.15	8.88498	39.0739
11	100000	6258.5	832.926	6313.68	7.58078	40.8659
12	79433	6352.54	718.209	6393.01	6.45038	43.3079
13	63096	6426.05	616.927	6455.6	5.48382	45.11
14	50119	6480.66	527.96	6502.13	4.65743	46.987
15	39811	6530.76	450.674	6546.29	3.9476	48.639
16	31623	6569.58	384.716	6580.83	3.35143	50.6761
17	25119	6595.9	332.979	6604.3	2.88999	52.4081
18	19953	6622.63	288.967	6628.93	2.49842	54.2701
19	15849	6646.02	252.932	6650.84	2.17949	55.8872
20	12589	6667.99	222.723	6671.71	1.91307	57.9292
21	10000	6683.99	197.945	6686.92	1.6963	59.6162
22	7943.3	6700.18	178.592	6702.55	1.52685	61.5083
23	6309.6	6712.38	162.821	6714.35	1.38954	63.1803
24	5011.9	6731.2	150.418	6732.89	1.28014	65.0123
25	3981.1	6742	140.491	6743.47	1.19377	66.6144
26	3162.3	6758.25	132.674	6759.56	1.12465	68.4764
27	2511.9	6770.67	127.433	6771.87	1.07826	70.3284
28	1995.3	6782.63	124.208	6783.77	1.04912	72.1205
29	1584.9	6797.54	123.129	6798.66	1.03773	73.7125
30	1258.9	6810.24	123.967	6811.37	1.04285	75.4595
31	1000	6822.84	126.807	6824.02	1.06476	77.1116
32	794.33	6835.18	131.894	6836.45	1.10546	78.9886
33	630.96	6847.2	139.449	6848.62	1.16671	80.6756
34	501.19	6866.5	149.846	6868.13	1.25015	82.2577
35	398.11	6878.09	162.759	6880.02	1.35556	84.1247
36	316.23	6899.14	177.85	6901.43	1.47668	85.6867
37	251.19	6920.46	196.82	6923.26	1.62907	87.6337
38	199.53	6942.33	217.559	6945.74	1.79495	89.1958
39	158.49	6967.52	242.518	6971.74	1.99348	91.3978
40	125.89	6998.09	267.86	7003.22	2.19199	93.3049
41	100	7029.29	299.592	7035.67	2.4405	95.1969
42	79.433	7072.55	329.954	7080.24	2.67107	96.9139
43	63.096	7123.09	364.389	7132.41	2.92847	98.961
44	50.119	7160.9	401.154	7172.13	3.20636	101.228
45	39.811	7223.04	435.55	7236.16	3.45077	103.08
46	31.623	7272.87	477.775	7288.55	3.75852	105.527
47	25.119	7334.93	515.67	7353.04	4.02147	107.544
48	19.953	7402.95	566.676	7424.61	4.3773	110.076
49	15.849	7474.81	622.492	7500.69	4.76052	112.538
50	12.589	7548.94	682.38	7579.72	5.16517	114.96
51	10	7624.86	751.227	7661.78	5.62681	117.782
52	7.9433	7709.78	831.405	7754.48	6.15486	120.829
53	6.3096	7797.21	923.793	7851.75	6.75675	123.661
54	5.0119	7891.26	1033.75	7958.68	7.46318	126.233
55	3.9811	7989.71	1163.97	8074.05	8.28876	129.321
56	3.1623	8089.24	1318.98	8196.07	9.26081	132.568
57	2.5119	8200.17	1505.51	8337.22	10.4034	135.755
58	1.9953	8315.81	1732.73	8494.42	11.7701	138.967
59	1.5849	8440.76	2013.71	8677.64	13.4182	142.184
60	1.2589	8584.72	2346.08	8899.52	15.2849	145.971
61	1	8716.89	2773.52	9147.49	17.6499	149.663
62	0.79433	8904.76	3286.13	9491.75	20.2556	153.6
63	0.63096	9087.44	3895.28	9887.1	23.2021	157.357
64	0.50119	9292.44	4689.62	10408.7	26.7788	161.629
65	0.39811	9499.98	5643.99	11050.1	30.7148	166.231
66	0.31623	9766.49	6821.91	11913.1	34.9344	171.413
67	0.25119	10103.2	8307.91	13080.4	39.4305	177.41
68	0.19953	10517.3	10006.1	14516.8	43.5731	184.143
69	0.15849	11041.3	12160.8	16425.4	47.7622	192.21
70	0.12589	11578.3	14782.1	18776.8	51.9297	201.247
71	0.1	12188.4	18149.2	21862.1	56.1161	211.764

File: Z_s5_1.txt
Index	Frequency (Hz)	Z' (Ω)	-Z'' (Ω)	Z (Ω)	-Phase (°)	Time (s)
1	1000000	2706.47	2346.61	3582.11	40.9266	84.6277
2	794330	3351.46	2114.01	3962.49	32.2427	86.5247
3	630960	3639.17	2053.82	4178.73	29.4389	89.0318
4	501190	4066.76	1886.29	4482.93	24.8833	91.6038
5	398110	4473.5	1658.39	4771	20.3405	94.4109
6	316230	4736.72	1471.97	4960.16	17.263	96.6829
7	251190	4855.73	1248.08	5013.56	14.4148	99.335
8	199530	5048.66	1111.32	5169.53	12.414	101.837
9	158490	5203.62	980.03	5295.1	10.6659	103.834
10	125890	5331.09	858.41	5399.76	9.14723	106.181
11	100000	5434.43	747.04	5485.53	7.82707	108.468
12	79433	5519.6	646.591	5557.35	6.68143	111.12
13	63096	5588.73	557.261	5616.45	5.69423	113.602
14	50119	5643.46	478.091	5663.67	4.8423	115.739
15	39811	5689.42	408.81	5704.09	4.10989	117.796
16	31623	5722.58	349.493	5733.24	3.49486	120.518
17	25119	5751.2	303.04	5759.18	3.01622	122.535
18	19953	5779.62	263.976	5785.65	2.61509	124.882
19	15849	5802.11	231.46	5806.73	2.28446	127.289
20	12589	5820.73	205.035	5824.34	2.01741	129.087
21	10000	5839.6	183.438	5842.48	1.79922	130.929
22	7943.3	5856.94	166.832	5859.31	1.6316	133.531
23	6309.6	5872.14	153.861	5874.16	1.50091	136.028
24	5011.9	5891.09	144.151	5892.86	1.40171	138.14
25	3981.1	5903.56	137.068	5905.15	1.33005	140.352
26	3162.3	5918.21	132.726	5919.7	1.28474	142.674
27	2511.9	5936.56	130.74	5938	1.26161	145.131
28	1995.3	5951.62	130.502	5953.05	1.25613	148.303
29	1584.9	5963.6	132.956	5965.08	1.27718	150.56
30	1258.9	5982.73	137.804	5984.31	1.3195	152.402
31	1000	5998.82	143.724	6000.54	1.37247	155.229
32	794.33	6014.67	153.224	6016.62	1.45929	156.886
33	630.96	6033.18	164.555	6035.42	1.56236	159.268
34	501.19	6054.19	178.678	6056.82	1.69048	161.57
35	398.11	6078.12	196.611	6081.3	1.85272	163.877
36	316.23	6103.35	216.718	6107.2	2.03361	166.619
37	251.19	6129.17	239.394	6133.84	2.23673	168.536
38	199.53	6165.22	265.552	6170.93	2.46636	171.188
39	158.49	6204.38	293.476	6211.32	2.70816	174.35
40	125.89	6239.87	322.799	6248.21	2.96137	177.152
41	100	6288.34	355.157	6298.36	3.23256	180.459
42	79.433	6336.35	387.919	6348.21	3.50334	182.927
43	63.096	6398.25	425.108	6412.36	3.80121	185.509
44	50.119	6449.2	462.097	6465.74	4.09834	188.816
45	39.811	6517.75	501.483	6537.02	4.39973	190.868
46	31.623	6583.92	543.011	6606.27	4.71482	193.33
47	25.119	6655.13	592.167	6681.42	5.08473	195.997
48	19.953	6732.09	648.419	6763.25	5.50162	198.774
49	15.849	6813.18	709.232	6849.99	5.94292	201.476
50	12.589	6897.04	776.558	6940.62	6.42404	204.403
51	10	6986.51	859.566	7039.19	7.01398	207.77
52	7.9433	7077.42	951.345	7141.07	7.65579	211.292
53	6.3096	7175.36	1063.79	7253.79	8.43304	214.869
54	5.0119	7279.12	1196.59	7376.81	9.33518	218.806
55	3.9811	7386.19	1358.03	7510	10.4181	222.628
56	3.1623	7500.9	1554.05	7660.19	11.705	226.46
57	2.5119	7626.45	1789.45	7833.58	13.2049	230.192
58	1.9953	7763.68	2079.7	8037.41	14.9961	233.719
59	1.5849	7916.35	2438.61	8283.44	17.1213	237.152
60	1.2589	8086.74	2869.06	8580.61	19.534	241.279
61	1	8278.06	3396.45	8947.74	22.3081	246.326
62	0.79433	8488.66	4034.07	9398.46	25.4185	250.573
63	0.63096	8749.47	4826.52	9992.43	28.8827	254.845
64	0.50119	9016.95	5779.51	10710.2	32.6582	259.797
65	0.39811	9342.57	6937.01	11636.4	36.5945	265.034
66	0.31623	9763.35	8345.17	12843.9	40.522	272.166
67	0.25119	10246.1	10111.5	14395.3	44.6211	278.728
68	0.19953	10766.2	12242.8	16303.3	48.6719	285.555
69	0.15849	11457.1	14765	18688.8	52.1899	293.858
70	0.12589	12325.5	17863.6	21703.2	55.3952	303.705
71	0.1	13167.7	21762.7	25436.2	58.8236	314.727

File: Z_s6_1.2.txt
Index	Frequency (Hz)	Z' (Ω)	-Z'' (Ω)	Z (Ω)	-Phase (°)	Time (s)
1	1000000	3797.39	3081.81	4890.57	39.0614	15.6374
2	794330	4306.22	2739.45	5103.74	32.463	17.4844
3	630960	4853.66	2556.38	5485.72	27.7754	19.7365
4	501190	5339.48	2396.89	5852.79	24.1753	21.3885
5	398110	5949.65	2183.02	6337.5	20.1489	24.2656
6	316230	6324.95	2001.06	6633.95	17.5561	26.1326
7	251190	6527.41	1736.02	6754.32	14.8935	28.4096
8	199530	6822.67	1569.56	7000.88	12.9556	30.6217
9	158490	7060.46	1397.67	7197.47	11.1974	32.7037
10	125890	7254.46	1231.62	7358.27	9.63546	34.9808
11	100000	7412.3	1075.5	7489.92	8.25582	38.1028
12	79433	7540.78	935.309	7598.56	7.07049	40.1499
13	63096	7638.38	807.866	7680.98	6.03739	41.7269
14	50119	7722.78	694.863	7753.98	5.14139	44.4689
15	39811	7792	594.589	7814.65	4.36365	46.271
16	31623	7840.93	508.504	7857.41	3.71058	47.948
17	25119	7883.28	442.427	7895.69	3.2122	49.675
18	19953	7920.89	384.713	7930.23	2.78064	51.6421
19	15849	7951.18	335.501	7958.25	2.41617	53.0941
20	12589	7980	295.431	7985.47	2.1202	54.7561
21	10000	8006.09	262.041	8010.38	1.87463	56.6032
22	7943.3	8030.64	234.907	8034.07	1.6755	58.4852
23	6309.6	8053.2	212.966	8056.01	1.51483	60.5872
24	5011.9	8068.26	194.621	8070.61	1.38181	62.4593
25	3981.1	8088.7	179.678	8090.7	1.27253	64.2063
26	3162.3	8108.19	167.919	8109.93	1.18641	65.7883
27	2511.9	8126.24	159.002	8127.8	1.12093	67.6154
28	1995.3	8142.16	152.669	8143.59	1.07419	69.5524
29	1584.9	8158.12	147.148	8159.45	1.03333	71.3794
30	1258.9	8176.71	144.487	8177.99	1.01235	73.4265
31	1000	8191.82	144.58	8193.1	1.01113	75.3235
32	794.33	8209.69	146.353	8211	1.0213	77.4706
33	630.96	8224.33	150.842	8225.71	1.05074	79.6526
34	501.19	8245.95	157.494	8247.46	1.09419	81.3846
35	398.11	8257.99	165.758	8259.65	1.14991	83.3567
36	316.23	8279.78	177.668	8281.68	1.22926	85.5087
37	251.19	8299.69	192.873	8301.93	1.33123	88.2108
38	199.53	8319.72	209.305	8322.35	1.44113	90.0878
39	158.49	8346.77	230.835	8349.96	1.58415	92.2298
40	125.89	8374.96	255.37	8378.85	1.74653	94.0919
41	100	8401.03	281.038	8405.73	1.91599	96.1039
42	79.433	8438.69	313.043	8444.5	2.12448	98.0609
43	63.096	8481.59	351.031	8488.85	2.36997	99.878
44	50.119	8518.89	389.431	8527.79	2.61739	101.92
45	39.811	8573.08	424.222	8583.57	2.83286	103.772
46	31.623	8626.7	466.394	8639.3	3.09462	106.119
47	25.119	8684.11	521.635	8699.76	3.4375	108.161
48	19.953	8749.61	577.677	8768.66	3.77737	110.748
49	15.849	8811.36	642.946	8834.78	4.17336	114.155
50	12.589	8887.03	716.508	8915.87	4.60944	116.677
51	10	8967.36	796.24	9002.64	5.07416	119.344
52	7.9433	9048.56	897.246	9092.93	5.66288	122.356
53	6.3096	9141.54	1012.45	9197.44	6.31993	125.543
54	5.0119	9241.95	1148.23	9313.01	7.0822	128.49
55	3.9811	9352.22	1309.89	9443.5	7.97309	131.448
56	3.1623	9471.21	1498.86	9589.08	8.99273	134.34
57	2.5119	9607.56	1725.41	9761.26	10.1811	137.602
58	1.9953	9759.21	1992.26	9960.48	11.5379	140.669
59	1.5849	9917.94	2312.57	10184	13.1252	144.101
60	1.2589	10094.4	2697.61	10448.7	14.9619	147.843
61	1	10282	3171.66	10760	17.1433	151.665
62	0.79433	10512.9	3722.35	11152.4	19.4978	155.232
63	0.63096	10759.8	4409.34	11628.2	22.2836	159.109
64	0.50119	11034.3	5206.99	12201.2	25.2621	163.501
65	0.39811	11319.2	6258.1	12934	28.9371	168.223
66	0.31623	11654.6	7478.91	13847.9	32.6889	173.565
67	0.25119	12083.8	9066.82	15107.1	36.8819	179.547
68	0.19953	12628.1	10820.9	16630.1	40.5929	186.675
69	0.15849	13163.7	13139	18598.8	44.9463	195.142
70	0.12589	13869.6	15916.8	21111.9	48.9317	204.389
71	0.1	14596.6	19168	24093	52.7104	215.411

File: Z_s6_1.3.txt
Index	Frequency (Hz)	Z' (Ω)	-Z'' (Ω)	Z (Ω)	-Phase (°)	Time (s)
1	1000000	3887.42	3214.31	5044.19	39.5857	15.4234
2	794330	4423.27	2872.95	5274.39	33.004	17.2404
3	630960	4982.91	2658.66	5647.82	28.0824	19.0025
4	501190	5529.2	2504.16	6069.83	24.3656	21.0645
5	398110	6161.18	2292.16	6573.74	20.4068	22.7715
6	316230	6560.78	2102.88	6889.56	17.7718	24.5786
7	251190	6772.58	1831.19	7015.78	15.13	26.1856
8	199530	7086.96	1656.76	7278.04	13.1581	27.9976
9	158490	7342.18	1477.22	7489.32	11.3758	29.6397
10	125890	7547.29	1301.77	7658.74	9.78618	31.4617
11	100000	7711.93	1137.38	7795.36	8.38969	33.1037
12	79433	7844.58	987.504	7906.49	7.17486	34.9658
13	63096	7951.68	852.772	7997.27	6.12125	36.5828
14	50119	8042.24	733.392	8075.62	5.21053	38.4148
15	39811	8114.35	627.286	8138.56	4.42051	40.0919
16	31623	8162.87	536.038	8180.45	3.7571	41.8539
17	25119	8212.48	466.12	8225.7	3.24848	43.5659
18	19953	8249.66	405.461	8259.62	2.81376	45.458
19	15849	8282.07	352.959	8289.59	2.44031	47.19
20	12589	8311.16	310.642	8316.97	2.14052	48.957
21	10000	8337.79	274.766	8342.32	1.88746	50.5791
22	7943.3	8364.82	246.445	8368.45	1.68757	52.4411
23	6309.6	8381.19	222.602	8384.14	1.52141	54.0681
24	5011.9	8405.77	202.952	8408.22	1.3831	55.7251
25	3981.1	8425.59	187.784	8427.69	1.27676	57.4072
26	3162.3	8443.47	174.792	8445.28	1.18593	59.0142
27	2511.9	8462.45	164.863	8464.06	1.11608	60.7512
28	1995.3	8480.71	157.498	8482.17	1.06393	62.4183
29	1584.9	8496.3	152.51	8497.67	1.02836	64.0503
30	1258.9	8512.12	149.136	8513.43	1.00375	65.6773
31	1000	8530.01	147.33	8531.28	0.989515	67.4494
32	794.33	8543.81	148.684	8545.1	0.996992	69.1264
33	630.96	8563.45	152.621	8564.81	1.02104	70.8884
34	501.19	8581.27	159.221	8582.74	1.06297	72.3755
35	398.11	8597.17	167.169	8598.79	1.11396	74.1375
36	316.23	8616.41	177.98	8618.24	1.18333	75.7095
37	251.19	8635.93	193.063	8638.09	1.28068	77.4916
38	199.53	8656.21	209.81	8658.75	1.38847	79.1186
39	158.49	8683.87	231.277	8686.95	1.52559	80.8356
40	125.89	8702.75	254.786	8706.48	1.67694	82.5476
41	100	8736.99	280.402	8741.49	1.8382	84.2797
42	79.433	8771.65	311.785	8777.19	2.0357	85.9817
43	63.096	8808	355.658	8815.17	2.31229	87.8787
44	50.119	8848.09	389.725	8856.67	2.52203	89.9158
45	39.811	8902.02	425.543	8912.18	2.73683	91.8478
46	31.623	8952.88	473.09	8965.37	3.02483	93.7799
47	25.119	9022.9	518.154	9037.77	3.28669	95.6969
48	19.953	9073.65	579.931	9092.17	3.65701	97.8139
49	15.849	9140.52	644.813	9163.23	4.03522	100.341
50	12.589	9220.04	716.29	9247.82	4.44229	102.673
51	10	9296.52	796.278	9330.56	4.89563	105.28
52	7.9433	9378.48	897.899	9421.37	5.46885	108.182
53	6.3096	9476.1	1012.34	9530.02	6.09781	110.914
54	5.0119	9577.46	1153.2	9646.64	6.86582	113.371
55	3.9811	9686.17	1309.7	9774.32	7.70047	116.233
56	3.1623	9810.61	1499.02	9924.48	8.68738	119.245
57	2.5119	9945.77	1723.16	10093.9	9.82926	122.142
58	1.9953	10080.9	1985.22	10274.5	11.1406	125.104
59	1.5849	10249.7	2302.7	10505.2	12.6619	128.256
60	1.2589	10429.4	2703.09	10774	14.5302	131.414
61	1	10631.5	3148.11	11087.8	16.4945	137.218
62	0.79433	10869.1	3699.97	11481.6	18.7992	141.63
63	0.63096	11084.4	4373.58	11916	21.5328	145.212
64	0.50119	11355.3	5202.85	12490.5	24.6166	149.984
65	0.39811	11681	6184.03	13216.9	27.8972	154.841
66	0.31623	11966.1	7425.85	14083	31.8226	160.598
67	0.25119	12401.3	8918.22	15275.1	35.7212	167.235
68	0.19953	12871.1	10726.1	16754.6	39.8059	173.522
69	0.15849	13448.6	12929.3	18655.6	43.8721	181.224
70	0.12589	13998.7	15687.5	21025.2	48.256	190.262
71	0.1	14729.4	19159.7	24167.1	52.448	201.434

File: Z_s6_1.4.txt
Index	Frequency (Hz)	Z' (Ω)	-Z'' (Ω)	Z (Ω)	-Phase (°)	Time (s)
1	1000000	3776.85	3142.87	4913.47	39.7652	26.6646
2	794330	4322.3	2820.07	5160.92	33.1223	29.2267
3	630960	4886.18	2648.83	5557.97	28.4624	31.9887
4	501190	5412.68	2498.88	5961.67	24.7815	34.2507
5	398110	6032.41	2272.51	6446.26	20.6422	36.1978
6	316230	6430.89	2078.7	6758.5	17.9127	38.7998
7	251190	6641.76	1802.87	6882.1	15.1867	41.1819
8	199530	6944.89	1626.08	7132.72	13.1779	43.5139
9	158490	7192.67	1445.35	7336.45	11.3621	46.306
10	125890	7389.15	1269.77	7497.46	9.75059	48.853
11	100000	7551.26	1107.15	7632	8.34115	50.7001
12	79433	7677.56	959.041	7737.22	7.12022	52.7671
13	63096	7784.08	828.195	7828.01	6.07319	55.0841
14	50119	7868.72	710.903	7900.77	5.1624	57.1262
15	39811	7932.71	607.425	7955.93	4.37872	59.6982
16	31623	7986.31	518.724	8003.14	3.71623	62.2453
17	25119	8026.78	450.434	8039.41	3.21186	64.3473
18	19953	8062.53	391.604	8072.03	2.78072	66.3293
19	15849	8095.02	341.146	8102.2	2.41317	68.4164
20	12589	8123.43	300.024	8128.97	2.11516	70.3334
21	10000	8147.78	266.213	8152.12	1.87137	72.5805
22	7943.3	8169.16	238.159	8172.63	1.6699	75.6025
23	6309.6	8191.65	215.449	8194.48	1.50659	77.8496
24	5011.9	8211.66	197.175	8214.03	1.3755	79.7916
25	3981.1	8232.46	181.699	8234.47	1.26437	81.9886
26	3162.3	8248.68	169.551	8250.43	1.17754	83.7457
27	2511.9	8268.08	160.309	8269.63	1.11076	86.0777
28	1995.3	8284.91	153.001	8286.32	1.05799	87.7297
29	1584.9	8304.25	147.822	8305.56	1.0198	89.5918
30	1258.9	8319.4	145.829	8320.68	1.00422	91.1688
31	1000	8331.3	144.309	8332.55	0.992339	92.9558
32	794.33	8351.94	144.866	8353.2	0.993706	94.5629
33	630.96	8362.18	148.897	8363.51	1.0201	96.1999
34	501.19	8382.41	154.212	8383.83	1.05396	97.8369
35	398.11	8403.79	163.552	8405.38	1.11493	99.524
36	316.23	8416.17	174.569	8417.98	1.18827	101.301
37	251.19	8436.61	188.741	8438.72	1.28158	103.248
38	199.53	8457.5	206.786	8460.03	1.4006	104.935
39	158.49	8483.78	226.91	8486.81	1.53209	106.632
40	125.89	8505.17	248.694	8508.8	1.67487	108.849
41	100	8534.12	278.031	8538.65	1.86596	110.981
42	79.433	8570.05	306.294	8575.52	2.04688	112.868
43	63.096	8608.96	331.31	8615.34	2.2039	115.03
44	50.119	8641.78	378.552	8650.06	2.50823	117.152
45	39.811	8694.79	417.182	8704.79	2.74699	119.369
46	31.623	8746.6	462.171	8758.8	3.0247	121.436
47	25.119	8808.52	508.303	8823.17	3.30264	123.463
48	19.953	8867.53	569.803	8885.82	3.67661	125.84
49	15.849	8922.33	629.947	8944.54	4.03858	129.25
50	12.589	9003.52	704.216	9031.02	4.47232	131.802
51	10	9077.69	787.491	9111.78	4.95801	134.654
52	7.9433	9164.78	883.401	9207.26	5.50578	137.441
53	6.3096	9257.18	999.996	9311.03	6.16541	140.248
54	5.0119	9355.74	1132.66	9424.06	6.90298	142.99
55	3.9811	9464.7	1288.49	9552.01	7.75239	145.922
56	3.1623	9584.6	1476.59	9697.68	8.75803	148.984
57	2.5119	9715.12	1697.14	9862.25	9.90904	152.246
58	1.9953	9860.18	1960.59	10053.2	11.246	155.578
59	1.5849	10015	2272.03	10269.5	12.7819	158.88
60	1.2589	10178	2645.89	10516.3	14.5722	162.362
61	1	10396.3	3107.31	10850.7	16.6407	169.336
62	0.79433	10610.7	3659.46	11224	19.0285	172.988
63	0.63096	10839.2	4320.58	11668.6	21.7325	177.08
64	0.50119	11114.5	5103.38	12230.2	24.6628	181.652
65	0.39811	11398.7	6157.79	12955.6	28.3788	186.035
66	0.31623	11720.7	7388.28	13855	32.2258	191.277
67	0.25119	12153.1	8804.25	15007.1	35.9211	196.999
68	0.19953	12652.6	10699.3	16569.9	40.2186	203.576
69	0.15849	13184.9	12954.4	18484	44.4948	211.228
70	0.12589	13865.2	15595.2	20867.5	48.3606	220.185
71	0.1	14398.1	18849.5	23719.4	52.6258	230.957