Folder: Streamlit_cement/data (part 7)

File: Z_s9_1.4.txt
Index	Frequency (Hz)	Z' (Ω)	-Z'' (Ω)	Z (Ω)	-Phase (°)	Time (s)
1	1000000	2757.25	1888.47	3341.96	34.4077	22.3535
2	794330	3028.45	1725.05	3485.3	29.6665	24.2506
3	630960	3340.53	1616.54	3711.11	25.8232	26.0426
4	501190	3645.27	1502.78	3942.88	22.4042	27.9846
5	398110	3959.49	1359.55	4186.4	18.9506	29.7217
6	316230	4189.98	1246.7	4371.52	16.57	31.4987
7	251190	4309.35	1079.17	4442.42	14.0592	33.1407
8	199530	4493.97	979.236	4599.42	12.2926	35.1378
9	158490	4642.62	876.407	4724.62	10.6902	36.8598
10	125890	4764.28	776.917	4827.21	9.26177	38.8018
11	100000	4861.59	683.811	4909.45	8.00646	40.4239
12	79433	4946.19	599.979	4982.44	6.91626	42.4009
13	63096	5009.85	523.889	5037.17	5.96982	44.1779
14	50119	5067.37	457.053	5087.94	5.15386	46.045
15	39811	5113.6	397.408	5129.02	4.44386	47.792
16	31623	5150.47	345.977	5162.07	3.84301	49.639
17	25119	5181.04	304.673	5189.99	3.36543	51.3661
18	19953	5210.29	269.268	5217.25	2.95841	53.2131
19	15849	5235.9	239.168	5241.36	2.61537	55.0501
20	12589	5257.94	214.519	5262.31	2.33632	57.0222
21	10000	5275.43	194.075	5278.99	2.10688	58.8642
22	7943.3	5297.1	177.75	5300.08	1.9219	60.7962
23	6309.6	5315.85	164.473	5318.39	1.77217	62.3433
24	5011.9	5329.6	153.913	5331.82	1.65418	64.1753
25	3981.1	5346.7	145.927	5348.69	1.56338	65.7673
26	3162.3	5361.04	139.912	5362.87	1.49496	67.6444
27	2511.9	5376.76	136.463	5378.5	1.45386	69.3264
28	1995.3	5391.88	134.753	5393.56	1.43163	71.4384
29	1584.9	5406.12	135.196	5407.81	1.43255	73.0505
30	1258.9	5423.73	137.435	5425.48	1.45154	74.8075
31	1000	5437.89	140.829	5439.71	1.4835	76.3945
32	794.33	5455.85	146.744	5457.82	1.5407	78.1166
33	630.96	5473.47	154.943	5475.66	1.6215	79.8386
34	501.19	5491.94	164.975	5494.42	1.72062	81.6856
35	398.11	5510.36	177.598	5513.22	1.846	83.5077
36	316.23	5532.4	192.054	5535.74	1.98818	85.0647
37	251.19	5553.58	209.091	5557.51	2.15615	86.8867
38	199.53	5580.12	228.83	5584.81	2.34828	88.5488
39	158.49	5611.68	251.094	5617.3	2.56198	90.2958
40	125.89	5639.84	275.48	5646.56	2.79641	91.9478
41	100	5675.71	302.199	5683.75	3.04779	94.2849
42	79.433	5715.29	332.949	5724.98	3.33405	96.3119
43	63.096	5760.77	366.57	5772.42	3.64094	98.2939
44	50.119	5809.69	401.945	5823.58	3.95771	100.616
45	39.811	5862.66	439.846	5879.13	4.29058	102.573
46	31.623	5916.48	480.216	5935.94	4.64029	104.815
47	25.119	5980.55	529.31	6003.92	5.0578	106.752
48	19.953	6042.47	582.918	6070.52	5.51028	110.069
49	15.849	6120.49	640.277	6153.89	5.97211	112.336
50	12.589	6199.81	707.223	6240.02	6.5077	114.823
51	10	6278.25	781.679	6326.72	7.09714	117.475
52	7.9433	6369.11	867.015	6427.85	7.75192	120.477
53	6.3096	6472.22	966.486	6543.98	8.49313	123.554
54	5.0119	6570.29	1081.09	6658.64	9.34384	126.616
55	3.9811	6686.4	1215.6	6796	10.3039	129.354
56	3.1623	6812.31	1374.23	6949.54	11.4051	132.361
57	2.5119	6943.84	1561.61	7117.27	12.6744	135.503
58	1.9953	7096.15	1773.26	7314.35	14.0303	138.72
59	1.5849	7262.19	2038.59	7542.89	15.6802	142.037
60	1.2589	7449.79	2335.5	7807.3	17.4061	145.584
61	1	7647.94	2704.41	8112.02	19.4743	149.281
62	0.79433	7872.93	3140.94	8476.35	21.7497	153.183
63	0.63096	8123.08	3661.4	8910.12	24.263	156.92
64	0.50119	8388.38	4264.65	9410.21	26.9488	161.242
65	0.39811	8703.86	5048.53	10062.1	30.1151	166.049
66	0.31623	9020.61	5954.04	10808.4	33.4267	171.446
67	0.25119	9464.71	7118.08	11842.6	36.9456	177.318
68	0.19953	9880.83	8401.48	12969.8	40.3739	184.131
69	0.15849	10443.2	10004.8	14462.2	43.772	192.033
70	0.12589	10989.3	12005.9	16275.9	47.5313	201.045
71	0.1	11729.2	14541.1	18682	51.1096	211.882

File: Z_s9_1.5.txt
Index	Frequency (Hz)	Z' (Ω)	-Z'' (Ω)	Z (Ω)	-Phase (°)	Time (s)
1	1000000	2801.24	2116.91	3511.16	37.0784	27.5036
2	794330	3136.68	1966.1	3701.93	32.0799	29.0507
3	630960	3526.61	1843.32	3979.3	27.5955	30.8227
4	501190	3866.56	1732.56	4236.99	24.1367	32.3847
5	398110	4247.08	1572.14	4528.72	20.313	34.4268
6	316230	4517.89	1442.36	4742.54	17.7059	35.9888
7	251190	4660.73	1258.88	4827.75	15.1152	38.4278
8	199530	4872.97	1143.3	5005.3	13.204	39.8549
9	158490	5044.95	1027.38	5148.5	11.5106	41.8769
10	125890	5190.91	911.79	5270.38	9.96244	43.2189
11	100000	5305.94	802.708	5366.32	8.60274	44.781
12	79433	5404.51	704.555	5450.24	7.42743	46.108
13	63096	5483.41	615.047	5517.79	6.39984	47.59
14	50119	5545.38	535.322	5571.16	5.51394	48.982
15	39811	5601.16	464.907	5620.42	4.74478	50.4391
16	31623	5642.31	404.423	5656.78	4.09977	51.9461
17	25119	5679.48	354.318	5690.52	3.56981	53.4431
18	19953	5711.45	311.676	5719.94	3.12356	54.8551
19	15849	5739.15	275.812	5745.77	2.75141	56.2322
20	12589	5765.18	246.112	5770.43	2.44444	57.7192
21	10000	5785.54	221.443	5789.78	2.19194	59.1712
22	7943.3	5808.08	200.95	5811.56	1.98155	60.7483
23	6309.6	5827.87	184.544	5830.79	1.81371	62.4203
24	5011.9	5842.73	171.303	5845.24	1.67938	64.0073
25	3981.1	5860.53	160.863	5862.73	1.57229	65.5443
26	3162.3	5875.77	153.024	5877.76	1.49183	66.9364
27	2511.9	5893.72	148.018	5895.58	1.43865	68.4684
28	1995.3	5905.89	144.428	5907.65	1.40089	69.8904
29	1584.9	5923.44	142.67	5925.15	1.37974	71.2724
30	1258.9	5936.68	142.843	5938.4	1.37833	72.5045
31	1000	5954.21	146.121	5956.01	1.4058	74.0465
32	794.33	5972.33	150.973	5974.24	1.44806	75.9785
33	630.96	5987.07	157.975	5989.15	1.51145	78.2206
34	501.19	6006.29	167.172	6008.61	1.59429	79.7526
35	398.11	6026.93	178.566	6029.58	1.69707	81.8346
36	316.23	6045.43	192.417	6048.49	1.82303	83.2417
37	251.19	6066.4	208.327	6069.98	1.96682	84.7737
38	199.53	6093.76	227.329	6098	2.13644	86.1057
39	158.49	6120.02	248.834	6125.08	2.32831	88.2428
40	125.89	6151.33	272.768	6157.38	2.53899	89.7248
41	100	6182.81	299.761	6190.07	2.7757	91.0418
42	79.433	6221.57	328.938	6230.26	3.02645	92.4438
43	63.096	6268.2	357.926	6278.41	3.26814	94.1259
44	50.119	6313.96	393.237	6326.19	3.56381	95.9079
45	39.811	6361.32	435.119	6376.18	3.91298	97.4249
46	31.623	6415.03	477.424	6432.78	4.25626	99.372
47	25.119	6472.74	522.65	6493.8	4.61641	101.844
48	19.953	6540.27	577.471	6565.72	5.04583	104.966
49	15.849	6615.1	633.881	6645.4	5.47356	107.523
50	12.589	6690.75	697.587	6727.02	5.95223	110
51	10	6769.91	772.715	6813.86	6.51154	113.287
52	7.9433	6857.19	855.466	6910.35	7.11117	116.034
53	6.3096	6956.45	954.053	7021.56	7.80921	118.711
54	5.0119	7056.26	1066.51	7136.4	8.59487	121.798
55	3.9811	7169.08	1197.67	7268.43	9.48427	124.645
56	3.1623	7291.95	1350.3	7415.92	10.491	127.537
57	2.5119	7428.22	1531	7584.36	11.6459	130.52
58	1.9953	7571.41	1743.15	7769.48	12.9651	133.372
59	1.5849	7737.64	1992.06	7989.96	14.4373	136.599
60	1.2589	7912.36	2294.94	8238.45	16.1745	139.806
61	1	8107.77	2641.59	8527.25	18.0461	143.338
62	0.79433	8341.9	3077.77	8891.56	20.2517	147.12
63	0.63096	8589.12	3564.04	9299.22	22.5359	150.877
64	0.50119	8850.49	4172.56	9784.76	25.2415	155.074
65	0.39811	9125.58	4891.34	10353.8	28.1914	159.761
66	0.31623	9485.95	5784.9	11110.7	31.3764	165.473
67	0.25119	9858.7	6854.67	12007.5	34.8106	171.215
68	0.19953	10356.1	8199.54	13209.2	38.3707	177.792
69	0.15849	10855	9768.93	14603.5	41.9855	185.38
70	0.12589	11429	11633.1	16308	45.507	194.397
71	0.1	11952	14054.2	18449.1	49.6214	204.879

File: Z_s9_1.txt
Index	Frequency (Hz)	Z' (Ω)	-Z'' (Ω)	Z (Ω)	-Phase (°)	Time (s)
1	1000000	2315.48	1895.98	2992.69	39.3116	73.2375
2	794330	2673.39	1815.32	3231.47	34.1777	75.6295
3	630960	3043.2	1704.36	3487.96	29.2513	77.7266
4	501190	3376.36	1578.02	3726.92	25.0501	79.4786
5	398110	3697.73	1410.22	3957.52	20.8755	81.7906
6	316230	3924.75	1272.53	4125.89	17.9644	83.7127
7	251190	4041.24	1097.09	4187.51	15.1883	85.7347
8	199530	4214.25	992.081	4329.45	13.2469	87.8318
9	158490	4359.96	889.825	4449.83	11.5351	89.8988
10	125890	4477.15	792.295	4546.71	10.0354	92.1958
11	100000	4580.28	701.704	4633.72	8.71006	94.2429
12	79433	4665.03	618.538	4705.85	7.55282	96.8549
13	63096	4736.1	542.759	4767.1	6.5376	99.517
14	50119	4796.23	474.407	4819.63	5.64889	101.489
15	39811	4845.88	413.43	4863.48	4.87643	103.841
16	31623	4885.83	360.069	4899.08	4.21489	105.813
17	25119	4920.57	317.189	4930.78	3.68829	108.185
18	19953	4949.4	280.224	4957.32	3.2405	110.857
19	15849	4976.11	249.178	4982.34	2.86669	112.849
20	12589	4995.68	223.517	5000.68	2.56182	114.826
21	10000	5016.64	203.18	5020.75	2.31928	116.623
22	7943.3	5037.74	186.946	5041.21	2.12522	118.475
23	6309.6	5055.69	174.165	5058.69	1.97302	120.367
24	5011.9	5072.96	165.038	5075.65	1.86334	122.239
25	3981.1	5089.21	158.375	5091.67	1.78246	124.971
26	3162.3	5105.35	154.446	5107.68	1.73277	126.983
27	2511.9	5122.8	153.18	5125.08	1.71273	129.276
28	1995.3	5140.15	154.312	5142.46	1.71956	131.518
29	1584.9	5159.24	157.927	5161.66	1.75331	133.215
30	1258.9	5175.09	162.73	5177.65	1.80106	134.937
31	1000	5194.4	171.221	5197.22	1.88793	136.899
32	794.33	5213.82	182.018	5217	1.99942	139.201
33	630.96	5234.37	194.664	5237.98	2.12982	140.918
34	501.19	5259.74	210.477	5263.95	2.29156	143.18
35	398.11	5285.55	229.013	5290.51	2.48097	145.002
36	316.23	5314.49	251.109	5320.42	2.7052	147.034
37	251.19	5344.72	275.268	5351.81	2.94829	149.576
38	199.53	5382.34	302.686	5390.85	3.21875	151.318
39	158.49	5420.05	333.656	5430.31	3.52266	153.14
40	125.89	5464.99	366.08	5477.24	3.83231	155.082
41	100	5510.2	401.921	5524.84	4.17184	157.489
42	79.433	5564.66	442.241	5582.21	4.54392	159.506
43	63.096	5626.31	481.281	5646.86	4.88924	161.713
44	50.119	5691.88	528.555	5716.37	5.30535	164.095
45	39.811	5762.54	577.511	5791.4	5.72297	166.092
46	31.623	5843.37	630.075	5877.25	6.15427	168.554
47	25.119	5923.62	686.745	5963.29	6.61297	170.921
48	19.953	6011.99	752.492	6058.9	7.13434	173.298
49	15.849	6106.83	824.015	6162.17	7.68469	176.005
50	12.589	6205.71	903.956	6271.2	8.28771	178.502
51	10	6313.22	994.16	6391.01	8.94904	181.619
52	7.9433	6430.68	1100.21	6524.12	9.7086	184.892
53	6.3096	6549.03	1221.89	6662.04	10.5685	188.064
54	5.0119	6684.95	1366.3	6823.15	11.5513	191.196
55	3.9811	6829.28	1531.64	6998.93	12.6408	194.248
56	3.1623	6986.55	1727.56	7196.97	13.8889	197.655
57	2.5119	7156.18	1959.66	7419.65	15.3145	200.907
58	1.9953	7344.47	2233.56	7676.59	16.9152	204.089
59	1.5849	7552.43	2561.51	7975	18.735	207.371
60	1.2589	7781.42	2942.69	8319.25	20.7151	211.953
61	1	8036.45	3404.26	8727.74	22.9577	216.045
62	0.79433	8322.09	3959.05	9215.82	25.4417	219.937
63	0.63096	8641.03	4612.78	9795.16	28.0943	223.784
64	0.50119	9004.08	5392.41	10495.3	30.9168	228.106
65	0.39811	9389.26	6335.21	11326.7	34.0087	233.253
66	0.31623	9842.43	7480.19	12362.3	37.2346	238.451
67	0.25119	10367	8848.93	13630.1	40.4829	244.878
68	0.19953	11047.1	10587.1	15301.2	43.7817	251.84
69	0.15849	11766.4	12618.5	17253.2	47.0013	259.452
70	0.12589	12588.6	15029	19604.7	50.0497	268.954
71	0.1	13610.2	17869.9	22462.7	52.7062	280.046

File: Z_s10_1.2.txt
Index	Frequency (Hz)	Z' (Ω)	-Z'' (Ω)	Z (Ω)	-Phase (°)	Time (s)
1	1000000	3932.92	3513.32	5273.64	41.7748	24.7986
2	794330	4561.22	3289.79	5623.83	35.8011	26.4756
3	630960	5204.67	2987.12	6000.95	29.8529	28.3577
4	501190	5857.27	2848.57	6513.21	25.9351	30.0997
5	398110	6574.83	2649.41	7088.57	21.9476	32.4667
6	316230	7047.88	2453.42	7462.69	19.1934	34.2688
7	251190	7320.79	2156.78	7631.89	16.4155	36.0358
8	199530	7689.6	1961.99	7935.95	14.3135	37.9978
9	158490	7996.92	1758.63	8188.01	12.4027	39.8699
10	125890	8248.71	1556.53	8394.29	10.686	41.8419
11	100000	8452.22	1365.76	8561.85	9.17884	43.7239
12	79433	8614.81	1190.64	8696.69	7.86889	45.836
13	63096	8745.47	1032.65	8806.23	6.7342	47.603
14	50119	8856.39	892.685	8901.27	5.75572	49.785
15	39811	8948.9	768.184	8981.81	4.90631	51.5921
16	31623	9007.32	660.041	9031.47	4.19105	53.3291
17	25119	9062.38	577.971	9080.79	3.64921	55.5212
18	19953	9113.9	507.441	9128.02	3.1868	57.3482
19	15849	9163.23	447.706	9174.17	2.79719	59.3852
20	12589	9198.42	398.224	9207.03	2.47894	61.2823
21	10000	9235.6	359.493	9242.59	2.22909	63.3193
22	7943.3	9269.07	327.273	9274.84	2.02217	65.1813
23	6309.6	9300.57	302.321	9305.49	1.86178	67.3184
24	5011.9	9331.89	283.3	9336.19	1.73887	69.0004
25	3981.1	9361.86	268.421	9365.7	1.64232	70.9374
26	3162.3	9389.43	257.63	9392.97	1.5717	72.4595
27	2511.9	9417.56	250.604	9420.9	1.5243	74.3515
28	1995.3	9442.19	244.959	9445.37	1.48609	76.0285
29	1584.9	9469.96	244.301	9473.11	1.47776	77.5906
30	1258.9	9505.18	246.332	9508.37	1.48452	79.0476
31	1000	9537.33	250.542	9540.62	1.50479	80.7546
32	794.33	9566.2	258.152	9569.68	1.5458	83.0967
33	630.96	9598.9	267.645	9602.63	1.59716	85.2287
34	501.19	9628.11	280.723	9632.2	1.67008	87.1857
35	398.11	9666.25	296.325	9670.79	1.75589	89.2728
36	316.23	9699.64	316.685	9704.8	1.86999	91.4498
37	251.19	9740.64	340.424	9746.58	2.00161	93.8319
38	199.53	9783.33	368.868	9790.28	2.15924	95.2989
39	158.49	9823.35	402.084	9831.57	2.34389	97.1109
40	125.89	9872.87	440.829	9882.7	2.55659	98.778
41	100	9921.81	484.079	9933.61	2.79321	100.745
42	79.433	9982.36	536.524	9996.76	3.07653	102.337
43	63.096	10047.2	595.278	10064.8	3.39072	104.454
44	50.119	10130.2	650.454	10151.1	3.67388	106.481
45	39.811	10216.4	726.712	10242.2	4.06872	108.778
46	31.623	10318.6	803.967	10349.9	4.45516	111.02
47	25.119	10418.7	888.177	10456.5	4.87259	113.177
48	19.953	10535.9	977.358	10581.2	5.29983	115.624
49	15.849	10668.2	1077.32	10722.5	5.76641	118.426
50	12.589	10810.5	1184.36	10875.2	6.25219	120.803
51	10	10955.8	1294.03	11031.9	6.73624	123.75
52	7.9433	11115.9	1422.62	11206.5	7.29314	126.647
53	6.3096	11285.8	1569.75	11394.5	7.91847	129.49
54	5.0119	11465.4	1736.38	11596.2	8.61169	132.472
55	3.9811	11657.5	1920.07	11814.6	9.353	135.394
56	3.1623	11854.9	2155.72	12049.3	10.3062	138.411
57	2.5119	12074.7	2420.34	12314.9	11.3346	141.503
58	1.9953	12302.7	2736.75	12603.4	12.5413	144.9
59	1.5849	12552.3	3111.32	12932.2	13.9212	148.387
60	1.2589	12822.4	3566.64	13309.2	15.5443	152.234
61	1	13100.7	4118.91	13733	17.4533	156.056
62	0.79433	13439.2	4786.65	14266.2	19.6043	159.753
63	0.63096	13813.8	5594.96	14903.8	22.0493	163.82
64	0.50119	14190.6	6588.52	15645.5	24.9048	167.987
65	0.39811	14649.3	7773.85	16584.2	27.9533	172.964
66	0.31623	15162.5	9280.03	17777	31.4681	178.226
67	0.25119	15767.7	11035	19245.5	34.9861	184.684
68	0.19953	16412.1	13095.3	20996.2	38.5865	191.526
69	0.15849	17193.8	15647.6	23248.1	42.3046	199.138
70	0.12589	18106	18709.8	26036.2	45.9395	217.842
71	0.1	19241.9	22568.5	29657.9	49.5491	240.152

File: Z_s10_1.3.txt
Index	Frequency (Hz)	Z' (Ω)	-Z'' (Ω)	Z (Ω)	-Phase (°)	Time (s)
1	1000000	3989.94	3691.6	5435.76	42.7759	17.5355
2	794330	4589.24	3328.65	5669.31	35.954	19.1725
3	630960	5361.06	3163.91	6225.05	30.5476	20.7395
4	501190	6032.75	3025.74	6749.02	26.6362	22.5015
5	398110	6818.91	2838.99	7386.3	22.6039	24.0736
6	316230	7325.37	2638.51	7786.07	19.8084	25.8006
7	251190	7628.03	2323.48	7974.05	16.9406	28.6247
8	199530	8030.18	2117.32	8304.63	14.771	30.1367
9	158490	8362.31	1899.85	8575.41	12.7999	31.9037
10	125890	8635.7	1683.53	8798.27	11.0315	33.6358
11	100000	8854.35	1478.01	8976.87	9.47671	35.2728
12	79433	9032.95	1289.6	9124.54	8.12501	36.9948
13	63096	9175.34	1117.78	9243.18	6.94578	38.5968
14	50119	9295.23	965.788	9345.27	5.93183	40.3289
15	39811	9392.37	830.96	9429.06	5.0559	41.9309
16	31623	9457.45	712.562	9484.25	4.30876	43.7829
17	25119	9515.55	622.574	9535.9	3.74336	45.415
18	19953	9569.18	545.174	9584.7	3.26072	47.192
19	15849	9618.26	479.96	9630.23	2.85674	48.839
20	12589	9663.43	426.067	9672.82	2.52457	50.6011
21	10000	9696.09	382.131	9703.62	2.2569	52.2881
22	7943.3	9728.4	348.323	9734.63	2.05058	55.9542
23	6309.6	9763.85	319.289	9769.07	1.87297	57.6412
24	5011.9	9794.55	297.165	9799.06	1.73781	59.3632
25	3981.1	9822.89	280.695	9826.9	1.63682	61.1353
26	3162.3	9857.62	268.433	9861.28	1.55983	62.8323
27	2511.9	9881.13	259.049	9884.52	1.50175	64.5143
28	1995.3	9911.82	252.91	9915.05	1.46164	66.2614
29	1584.9	9941.9	251.2	9945.07	1.44738	67.8134
30	1258.9	9971.22	249.885	9974.35	1.43557	69.4954
31	1000	9997.66	254.538	10000.9	1.45842	71.3574
32	794.33	10033.1	260.355	10036.5	1.48646	73.0595
33	630.96	10064.8	269.106	10068.4	1.53157	74.5715
34	501.19	10094.3	281.686	10098.2	1.59845	76.4735
35	398.11	10124.7	296.448	10129.1	1.67712	77.8956
36	316.23	10164.1	314.867	10169	1.77435	79.6076
37	251.19	10197.3	339.356	10203	1.90604	81.2696
38	199.53	10243.1	365.863	10249.6	2.04563	82.8317
39	158.49	10279.6	398.08	10287.3	2.21769	84.5087
40	125.89	10323.3	434.193	10332.4	2.40841	86.2257
41	100	10371.7	478.8	10382.8	2.64312	87.7228
42	79.433	10436.5	528.753	10449.9	2.90034	89.5798
43	63.096	10489.4	585.711	10505.8	3.19598	91.1918
44	50.119	10570.8	658.909	10591.3	3.56681	93.0889
45	39.811	10658.1	716.861	10682.2	3.84791	95.4159
46	31.623	10754.6	793.145	10783.9	4.21787	97.7229
47	25.119	10858.2	878.998	10893.7	4.62815	99.78
48	19.953	10970.7	971.265	11013.6	5.05935	101.987
49	15.849	11106.6	1063.48	11157.4	5.46951	104.359
50	12.589	11234.8	1169.58	11295.5	5.94328	106.391
51	10	11388.6	1290.69	11461.5	6.46585	108.753
52	7.9433	11537.3	1424.18	11624.9	7.03706	111.21
53	6.3096	11715.2	1565.25	11819.3	7.61013	113.742
54	5.0119	11888.1	1734.88	12014	8.30282	116.159
55	3.9811	12082.3	1925.9	12234.8	9.05666	118.816
56	3.1623	12281.6	2154.03	12469.1	9.94775	121.433
57	2.5119	12494.8	2416.2	12726.3	10.9445	124.34
58	1.9953	12728.2	2727.72	13017.2	12.0958	127.177
59	1.5849	12986.4	3105.45	13352.6	13.4486	130.035
60	1.2589	13242.6	3552.15	13710.7	15.0154	132.947
61	1	13546.8	4094.77	14152.1	16.8185	138.441
62	0.79433	13891.5	4741.89	14678.6	18.8474	141.663
63	0.63096	14228.6	5510.64	15258.5	21.1711	145.485
64	0.50119	14585.9	6494.27	15966.3	24.0007	149.427
65	0.39811	15077.4	7704.52	16931.8	27.0669	154.089
66	0.31623	15593.2	9160.15	18084.7	30.4319	159.211
67	0.25119	16182.8	10813.9	19463.4	33.7521	165.263
68	0.19953	16841.9	13046.7	21304.1	37.7633	172.065
69	0.15849	17636.9	15586.6	23537.3	41.4686	179.637
70	0.12589	18435	18461.9	26090	45.0419	197.692
71	0.1	19518.8	22265.2	29609.5	48.7607	219.031

File: Z_s10_1.4.txt
Index	Frequency (Hz)	Z' (Ω)	-Z'' (Ω)	Z (Ω)	-Phase (°)	Time (s)
1	1000000	3947.73	3700.73	5411.1	43.1504	19.6875
2	794330	4667.7	3315.31	5725.27	35.3849	22.0246
3	630960	5342.26	3216.24	6235.7	31.0495	23.8166
4	501190	5999.38	3060.75	6735.04	27.0296	25.7086
5	398110	6813.44	2869.17	7392.9	22.8362	27.3357
6	316230	7318.05	2655.65	7785.01	19.9453	29.1177
7	251190	7631.22	2337.78	7981.27	17.0321	30.9797
8	199530	8031.4	2127.83	8308.49	14.8389	32.5818
9	158490	8362.33	1905.82	8576.75	12.8387	34.0188
10	125890	8634.59	1686.54	8797.76	11.0521	35.5758
11	100000	8848.25	1478.38	8970.91	9.48546	37.1029
12	79433	9029.23	1287.86	9120.61	8.11745	38.7899
13	63096	9170.11	1116.61	9237.84	6.94249	40.3519
14	50119	9288.68	963.499	9338.51	5.92202	42.1539
15	39811	9387.99	827.945	9424.42	5.03999	43.761
16	31623	9450.65	709.97	9477.28	4.29622	45.403
17	25119	9514.17	620.585	9534.39	3.73197	47.145
18	19953	9563.93	543.237	9579.35	3.25094	49.0721
19	15849	9610.71	477.184	9622.54	2.84248	51.0391
20	12589	9647.24	423.914	9656.55	2.51605	53.3311
21	10000	9688.9	380.326	9696.36	2.24792	55.0482
22	7943.3	9721.13	344.499	9727.23	2.02961	59.4723
23	6309.6	9749.66	315.791	9754.77	1.85516	61.6993
24	5011.9	9780.3	294.232	9784.72	1.72317	64.7614
25	3981.1	9809.24	276.631	9813.14	1.61538	67.0234
26	3162.3	9838.81	263.079	9842.32	1.53166	69.0354
27	2511.9	9863.83	252.857	9867.07	1.46844	71.3225
28	1995.3	9892.64	247.814	9895.74	1.43498	72.9395
29	1584.9	9921.34	244.603	9924.36	1.41229	74.8065
30	1258.9	9946.51	244.844	9949.52	1.41011	76.7186
31	1000	9979.28	246.462	9982.32	1.41477	79.3856
32	794.33	10013.9	251.264	10017.1	1.43733	81.7827
33	630.96	10041.4	258.417	10044.7	1.47419	83.7947
34	501.19	10068.4	270.968	10072	1.54161	86.5718
35	398.11	10105.3	285.02	10109.3	1.61561	89.9838
36	316.23	10133.4	303.682	10138	1.71655	93.0209
37	251.19	10171.6	323.968	10176.8	1.82426	95.3329
38	199.53	10207.4	349.388	10213.4	1.96041	97.545
39	158.49	10247.9	381.325	10255	2.131	99.792
40	125.89	10292.8	419.218	10301.4	2.33232	102.274
41	100	10346.2	460.561	10356.5	2.54883	104.721
42	79.433	10393.7	508.553	10406.2	2.80118	107.098
43	63.096	10468.8	561.253	10483.9	3.06879	109.27
44	50.119	10539.1	616.476	10557.2	3.34764	112.057
45	39.811	10607.7	688.024	10630	3.71105	114.924
46	31.623	10696.3	759.021	10723.2	4.05895	118.166
47	25.119	10806.1	843.132	10839	4.46137	120.803
48	19.953	10915.9	939.22	10956.2	4.91771	123.905
49	15.849	11026.1	1038.97	11075	5.38296	127.098
50	12.589	11169.7	1137.3	11227.5	5.81379	130.425
51	10	11310.3	1253.59	11379.5	6.32462	133.777
52	7.9433	11463.2	1381.36	11546.1	6.87125	137.699
53	6.3096	11628	1525.41	11727.6	7.47363	141.241
54	5.0119	11796.7	1692.84	11917.6	8.16622	144.698
55	3.9811	11981.9	1881.83	12128.8	8.92573	148.51
56	3.1623	12189.7	2111.01	12371.2	9.825	152.262
57	2.5119	12402.1	2376.88	12627.8	10.8492	155.989
58	1.9953	12623.5	2678.37	12904.6	11.979	159.941
59	1.5849	12883.7	3063.23	13242.9	13.3743	163.393
60	1.2589	13142.5	3493.96	13599	14.8878	167.235
61	1	13445.6	4037.43	14038.7	16.7139	173.574
62	0.79433	13771.3	4674.26	14543	18.7482	177.431
63	0.63096	14115.1	5413.94	15117.7	20.9847	181.524
64	0.50119	14517.5	6389.26	15861.3	23.7547	186.376
65	0.39811	14957.7	7514.77	16739.3	26.6751	191.868
66	0.31623	15438.2	8967.52	17853.7	30.1508	197.22
67	0.25119	16035.8	10588.5	19216.3	33.437	203.042
68	0.19953	16602.4	12661.1	20879.3	37.3293	210.494
69	0.15849	17401.4	14913.4	22917.6	40.5973	218.811
70	0.12589	18387.7	18003.7	25734	44.3954	228.663
71	0.1	19219.3	21521.2	28853.8	48.2339	251.518

File: Z_s10_1.5.txt
Index	Frequency (Hz)	Z' (Ω)	-Z'' (Ω)	Z (Ω)	-Phase (°)	Time (s)
1	1000000	3899.98	3941.58	5544.9	45.3039	21.7735
2	794330	4612.81	3666.29	5892.34	38.4779	23.5606
3	630960	5460.86	3508.45	6490.78	32.7196	25.4526
4	501190	6226.5	3348.34	7069.71	28.2694	27.2996
5	398110	7122.21	3184.64	7801.78	24.0914	29.0817
6	316230	7699.25	2961.37	8249.14	21.0383	30.7487
7	251190	8054.89	2612.73	8468.04	17.9713	33.7427
8	199530	8506.41	2379.49	8832.95	15.6279	35.4298
9	158490	8878.53	2132.97	9131.15	13.5087	37.0568
10	125890	9178.98	1888.68	9371.28	11.627	38.9938
11	100000	9426.49	1656.16	9570.87	9.96474	40.7109
12	79433	9626.76	1444.81	9734.57	8.53537	42.6079
13	63096	9784.88	1251.88	9864.64	7.29082	44.3899
14	50119	9924.33	1081.21	9983.06	6.21758	46.362
15	39811	10026.5	927.682	10069.3	5.28613	47.979
16	31623	10107.6	796.604	10138.9	4.50632	49.766
17	25119	10170.5	693.865	10194.1	3.90287	51.3881
18	19953	10233.9	607.151	10251.9	3.39523	53.1351
19	15849	10287.5	533.617	10301.4	2.96929	54.8521
20	12589	10336.9	472.121	10347.7	2.61507	56.7442
21	10000	10380.1	419.89	10388.6	2.31643	61.1103
22	7943.3	10419	381.997	10426	2.09973	62.6423
23	6309.6	10448	349.307	10453.8	1.91486	64.5193
24	5011.9	10482.8	323.314	10487.8	1.76657	66.1113
25	3981.1	10517	302.802	10521.4	1.64918	67.9834
26	3162.3	10552.3	288.477	10556.2	1.56596	69.6754
27	2511.9	10577.4	275.762	10581	1.49341	71.5074
28	1995.3	10605.2	270.091	10608.7	1.45887	73.1795
29	1584.9	10637.5	265.672	10640.8	1.43067	74.8465
30	1258.9	10674.9	263.702	10678.2	1.41508	76.4335
31	1000	10699.5	265.591	10702.8	1.42195	78.3856
32	794.33	10733.5	271.157	10736.9	1.44714	80.5476
33	630.96	10767.3	278.91	10770.9	1.48382	82.3146
34	501.19	10803.3	289.489	10807.2	1.53494	84.0767
35	398.11	10832.4	303.538	10836.7	1.60508	85.9187
36	316.23	10869.5	324.392	10874.3	1.70945	87.5757
37	251.19	10906.4	345.063	10911.9	1.81214	89.3928
38	199.53	10952.2	374.393	10958.6	1.95786	90.9398
39	158.49	10994	404.63	11001.4	2.1078	92.7818
40	125.89	11043.8	445.312	11052.8	2.30905	94.5489
41	100	11093	488.983	11103.8	2.52398	96.4859
42	79.433	11152.5	538.808	11165.5	2.76597	98.1779
43	63.096	11210	615.121	11226.8	3.14082	100.17
44	50.119	11307.6	660.145	11326.8	3.34118	102.077
45	39.811	11376.7	734.645	11400.4	3.69472	104.164
46	31.623	11466	809.767	11494.5	4.03972	106.146
47	25.119	11576.8	900.414	11611.8	4.44736	108.303
48	19.953	11698.6	999.868	11741.2	4.88516	110.545
49	15.849	11835.8	1105.04	11887.3	5.33388	112.672
50	12.589	11974.9	1216.72	12036.6	5.80167	115.849
51	10	12118.6	1337.97	12192.3	6.30028	118.116
52	7.9433	12282.4	1471.02	12370.2	6.8296	120.678
53	6.3096	12457.4	1622.88	12562.7	7.42237	123.1
54	5.0119	12639.5	1803.81	12767.5	8.122	125.822
55	3.9811	12839.3	2009.11	12995.6	8.89358	128.524
56	3.1623	13047.7	2237.59	13238.2	9.73114	131.207
57	2.5119	13276.9	2520.75	13514	10.7503	134.474
58	1.9953	13529.3	2849.78	13826.2	11.8948	137.201
59	1.5849	13798.2	3244.94	14174.6	13.2338	139.953
60	1.2589	14076	3742.14	14565	14.8878	143
61	1	14416	4267.17	15034.3	16.4889	148.744
62	0.79433	14772.2	4923.87	15571.2	18.4342	152.091
63	0.63096	15131.7	5727.9	16179.5	20.7334	155.918
64	0.50119	15556.9	6716.92	16945.1	23.3529	160.295
65	0.39811	15966.1	7913.76	17819.8	26.3658	164.932
66	0.31623	16518.9	9330.24	18971.7	29.4587	170.319
67	0.25119	17105.6	11246.9	20471.8	33.3249	176.101
68	0.19953	17800.7	13264	22199.1	36.6912	182.704
69	0.15849	18714.3	15834	24514.1	40.2341	190.671
70	0.12589	19537.7	18925.4	27200.9	44.088	209.66
71	0.1	20820.1	22647.4	30763.3	47.4072	220.167