Folder: Streamlit_cement/data (part 2)

File: Z_s2_1.4.txt
Index	Frequency (Hz)	Z' (Ω)	-Z'' (Ω)	Z (Ω)	-Phase (°)	Time (s)
1	1000000	3389.89	2837.27	4420.57	39.9287	18.7715
2	794330	3834.15	2644.03	4657.42	34.5902	21.0936
3	630960	4384.43	2487	5040.67	29.5634	23.8306
4	501190	4864.2	2366.49	5409.32	25.9434	26.1126
5	398110	5440.7	2202.29	5869.52	22.0371	28.7397
6	316230	5834.26	2043.99	6181.95	19.3075	30.9417
7	251190	6060.6	1802.21	6322.88	16.5606	33.4638
8	199530	6374.25	1647.38	6583.68	14.4906	36.0508
9	158490	6631.9	1481.87	6795.45	12.5956	38.3479
10	125890	6845.2	1317.73	6970.88	10.8964	40.8149
11	100000	7020.89	1160.47	7116.15	9.38545	43.542
12	79433	7162.88	1016.34	7234.62	8.07582	45.494
13	63096	7279.38	884.232	7332.89	6.92583	47.756
14	50119	7374.06	765.314	7413.67	5.9252	50.0481
15	39811	7455.01	659.648	7484.14	5.05658	52.1801
16	31623	7511.1	566.686	7532.45	4.31459	54.6122
17	25119	7561.6	493.148	7577.66	3.7314	56.5892
18	19953	7606.49	429.823	7618.62	3.2342	58.8063
19	15849	7640.65	375.208	7649.86	2.81136	60.9983
20	12589	7673.73	330.019	7680.82	2.46256	63.1503
21	10000	7702.15	292.415	7707.7	2.17421	65.8324
22	7943.3	7732.99	261.4	7737.4	1.93605	67.9894
23	6309.6	7755.28	235.691	7758.86	1.74075	70.4565
24	5011.9	7777.39	215.006	7780.37	1.58354	72.8485
25	3981.1	7796.64	197.185	7799.14	1.44876	74.9006
26	3162.3	7814.18	183.627	7816.33	1.34616	77.6626
27	2511.9	7834.8	172.61	7836.7	1.26209	80.1946
28	1995.3	7854	163.256	7855.7	1.1908	82.2817
29	1584.9	7870.19	157.734	7871.77	1.14817	84.8337
30	1258.9	7888.46	154.535	7889.97	1.12228	87.0258
31	1000	7899.94	151.571	7901.4	1.09916	89.2278
32	794.33	7919.51	152.235	7920.97	1.10125	92.0599
33	630.96	7938.97	154.175	7940.47	1.11255	94.5019
34	501.19	7956.63	159.197	7958.22	1.14622	96.764
35	398.11	7973.11	166.599	7974.85	1.19703	99.501
36	316.23	7994.99	174.721	7996.9	1.25193	102.028
37	251.19	8012.62	187.655	8014.82	1.34161	104.065
38	199.53	8033.27	201.039	8035.78	1.43357	106.577
39	158.49	8059.28	217.73	8062.22	1.54753	108.679
40	125.89	8081	235.909	8084.44	1.67217	111.191
41	100	8112.78	257.194	8116.86	1.8158	114.003
42	79.433	8142.77	283.754	8147.71	1.9958	116.66
43	63.096	8181.38	311.096	8187.29	2.17761	118.947
44	50.119	8217.95	339.078	8224.94	2.36272	121.934
45	39.811	8261.66	375.96	8270.21	2.60554	125.031
46	31.623	8304.41	414.318	8314.74	2.85619	128.169
47	25.119	8361.63	458.746	8374.21	3.14028	130.476
48	19.953	8413.56	508.861	8428.93	3.46109	133.463
49	15.849	8479.31	564.31	8498.07	3.8075	136.59
50	12.589	8539.99	621.479	8562.57	4.16224	139.767
51	10	8614.58	694.306	8642.51	4.60789	143.609
52	7.9433	8694.08	773.997	8728.46	5.08739	146.986
53	6.3096	8775.02	867.927	8817.84	5.64869	150.523
54	5.0119	8870.79	975.663	8924.29	6.2765	154.17
55	3.9811	8982.66	1114.88	9051.58	7.07504	157.652
56	3.1623	9096.79	1264.95	9184.32	7.91645	161.634
57	2.5119	9216.43	1437.41	9327.85	8.86453	165.206
58	1.9953	9357.54	1633.31	9499.01	9.90097	169.183
59	1.5849	9493.37	1869.11	9675.62	11.1383	173.085
60	1.2589	9646.43	2150.55	9883.24	12.5679	176.982
61	1	9834.24	2489.73	10144.5	14.207	181.62
62	0.79433	10056.6	2884.88	10462.2	16.0063	186.067
63	0.63096	10268.4	3385.9	10812.3	18.2494	190.554
64	0.50119	10524.3	3961.71	11245.2	20.6282	195.021
65	0.39811	10790.2	4670.55	11757.7	23.4054	200.178
66	0.31623	11092.1	5565.78	12410.2	26.6465	205.425
67	0.25119	11490.1	6619.98	13260.7	29.9482	211.692
68	0.19953	11948.3	7792.81	14265	33.1127	219.124
69	0.15849	12440.4	9301.14	15533.1	36.7837	226.711
70	0.12589	13033.6	11132.8	17141	40.5028	236.244
71	0.1	13536.7	13341	19005.9	44.5828	247.006

File: Z_s2_1.5.txt
Index	Frequency (Hz)	Z' (Ω)	-Z'' (Ω)	Z (Ω)	-Phase (°)	Time (s)
1	1000000	3313.64	2951.26	4437.36	41.6896	22.9865
2	794330	3834.61	2787.41	4740.67	36.0137	25.2936
3	630960	4393.15	2638.44	5124.56	30.9882	27.2156
4	501190	4924.86	2511.74	5528.39	27.0222	29.8977
5	398110	5535.35	2344.93	6011.55	22.9589	32.2447
6	316230	5958.57	2176.86	6343.75	20.0689	34.2467
7	251190	6203.65	1916.73	6493	17.1695	37.3908
8	199530	6531.25	1745.96	6760.59	14.9666	39.1178
9	158490	6804.55	1568.49	6982.98	12.9803	40.7949
10	125890	7028.87	1392.82	7165.54	11.2083	42.6119
11	100000	7213.85	1226.48	7317.37	9.64899	44.3789
12	79433	7362.88	1071.51	7440.44	8.28007	46.696
13	63096	7479.79	930.494	7537.44	7.09123	48.303
14	50119	7578.88	804.727	7621.48	6.06097	50.015
15	39811	7661.84	692.755	7693.09	5.16643	51.7571
16	31623	7723.27	594.828	7746.14	4.40409	53.4291
17	25119	7776	517.619	7793.21	3.80835	55.0961
18	19953	7819.67	450.244	7832.62	3.29536	56.6582
19	15849	7859.73	393.112	7869.56	2.86331	58.3952
20	12589	7890.53	345.084	7898.07	2.50418	59.9322
21	10000	7919.92	305.328	7925.8	2.20777	61.7893
22	7943.3	7951.46	273.083	7956.14	1.96698	63.6063
23	6309.6	7975.01	246.06	7978.81	1.76724	65.4633
24	5011.9	7995.34	223.733	7998.47	1.60288	67.0854
25	3981.1	8019.01	205.165	8021.64	1.46558	68.7674
26	3162.3	8039.37	190.119	8041.62	1.3547	70.3744
27	2511.9	8055.31	178.741	8057.29	1.27114	72.1715
28	1995.3	8077.18	170.304	8078.97	1.20788	74.1285
29	1584.9	8092.57	162.809	8094.2	1.15254	75.6455
30	1258.9	8113.47	157.947	8115.01	1.11525	77.2625
31	1000	8128.26	156.466	8129.76	1.10279	78.9296
32	794.33	8144.09	157.521	8145.62	1.10806	80.7766
33	630.96	8163.95	159.353	8165.51	1.11822	82.3636
34	501.19	8182.26	164.013	8183.91	1.14834	84.0807
35	398.11	8200.9	171.328	8202.69	1.19681	85.5827
36	316.23	8221.65	181.529	8223.66	1.26485	87.3347
37	251.19	8237.37	193.009	8239.64	1.34224	88.9368
38	199.53	8262.75	207.851	8265.36	1.44098	90.7688
39	158.49	8284.86	225.071	8287.91	1.55614	92.4108
40	125.89	8316.14	244.2	8319.72	1.68198	94.3779
41	100	8336.49	265.367	8340.71	1.82322	96.1449
42	79.433	8369.62	293.479	8374.76	2.00824	98.0969
43	63.096	8414.79	333.813	8421.41	2.27172	100.509
44	50.119	8443.74	366.944	8451.71	2.48837	102.596
45	39.811	8492.77	391.329	8501.79	2.6382	104.618
46	31.623	8540.56	435.205	8551.64	2.91712	106.8
47	25.119	8595.63	476.701	8608.83	3.17429	108.977
48	19.953	8653.62	528.558	8669.74	3.49525	111.179
49	15.849	8719.16	587.597	8738.93	3.85542	113.651
50	12.589	8785.08	644.286	8808.67	4.19449	116.038
51	10	8862.23	720.51	8891.47	4.64799	118.695
52	7.9433	8934.91	806.514	8971.23	5.15785	121.347
53	6.3096	9028.68	900.992	9073.52	5.69881	124.344
54	5.0119	9124.78	1013.6	9180.9	6.33859	127.391
55	3.9811	9231.26	1145.88	9302.11	7.07596	130.109
56	3.1623	9347.99	1295.61	9437.34	7.89083	132.626
57	2.5119	9467.63	1475.78	9581.96	8.85978	135.253
58	1.9953	9611.39	1678.39	9756.83	9.9054	138.08
59	1.5849	9766.98	1932.16	9956.27	11.1901	141.022
60	1.2589	9942.23	2232.28	10189.8	12.6545	144.014
61	1	10128.4	2583.58	10452.7	14.3101	149.348
62	0.79433	10344.5	2999.19	10770.5	16.1685	152.555
63	0.63096	10580.3	3479.81	11137.9	18.2058	156.187
64	0.50119	10812.9	4073.89	11554.9	20.6445	160.084
65	0.39811	11126.3	4820.19	12125.6	23.4234	164.401
66	0.31623	11478.8	5733.8	12831.2	26.5427	169.628
67	0.25119	11791.8	6791.05	13607.6	29.9381	175.305
68	0.19953	12320.9	8057.43	14721.6	33.1833	181.902
69	0.15849	12806.1	9590.56	15999.2	36.8297	189.325
70	0.12589	13272.4	11529.8	17581.1	40.981	198.177
71	0.1	14023.7	13995.3	19812.4	44.942	209.034

File: Z_s2_1.txt
Index	Frequency (Hz)	Z' (Ω)	-Z'' (Ω)	Z (Ω)	-Phase (°)	Time (s)
1	1000000	2836.63	2924.09	4073.92	45.8698	16.7104
2	794330	3339.24	2678.86	4280.98	38.7379	18.6525
3	630960	4105.46	2752.41	4942.73	33.839	21.0095
4	501190	4709.97	2596.66	5378.33	28.8684	23.7566
5	398110	5324.35	2379.9	5832.03	24.0839	25.9636
6	316230	5730.06	2154.4	6121.69	20.6054	28.1906
7	251190	5944.56	1865.8	6230.49	17.4254	30.0727
8	199530	6246.72	1690.32	6471.37	15.1412	31.9097
9	158490	6495.34	1516.56	6670.03	13.1422	34.0567
10	125890	6698.93	1349.83	6833.57	11.3925	35.9738
11	100000	6872.55	1192.44	6975.23	9.84325	37.9758
12	79433	7022.58	1047.93	7100.34	8.48721	40.0479
13	63096	7139.47	912.867	7197.59	7.28642	42.0749
14	50119	7241.14	791.57	7284.27	6.23856	44.1719
15	39811	7328.92	681.488	7360.54	5.31243	45.954
16	31623	7388.65	584.713	7411.75	4.52476	48.231
17	25119	7438.74	506.656	7455.98	3.89642	50.228
18	19953	7483.29	438.761	7496.14	3.35553	52.8401
19	15849	7521.21	381.781	7530.89	2.90587	54.8771
20	12589	7554.5	334.271	7561.89	2.53357	56.4992
21	10000	7582.26	294.687	7587.99	2.2257	58.5762
22	7943.3	7608.2	262.415	7612.73	1.97541	60.6032
23	6309.6	7631.51	236.124	7635.16	1.7722	62.8753
24	5011.9	7655.02	215.264	7658.04	1.61077	64.8823
25	3981.1	7676.15	198.054	7678.71	1.47797	66.9394
26	3162.3	7693.57	184.856	7695.79	1.3764	69.0164
27	2511.9	7711.99	174.681	7713.97	1.29756	71.1684
28	1995.3	7729.07	167.008	7730.88	1.23784	72.9955
29	1584.9	7745.93	162.378	7747.63	1.20092	74.7475
30	1258.9	7765.98	159.498	7767.61	1.17658	76.6045
31	1000	7783.49	160.641	7785.15	1.18234	78.4116
32	794.33	7800.64	163.149	7802.35	1.19815	81.0086
33	630.96	7821.4	167.718	7823.2	1.22844	82.8557
34	501.19	7843.32	175.11	7845.28	1.27897	85.5177
35	398.11	7862.85	185.236	7865.03	1.34955	87.9897
36	316.23	7886.65	197.716	7889.13	1.43609	89.9818
37	251.19	7910.31	212.9	7913.18	1.5417	92.4488
38	199.53	7934.74	230.911	7938.1	1.66691	94.3759
39	158.49	7962.03	251.636	7966	1.8102	96.3629
40	125.89	7993.96	274.769	7998.68	1.9686	98.2549
41	100	8023.68	300.745	8029.32	2.14657	100.522
42	79.433	8065.69	329.211	8072.4	2.3373	102.824
43	63.096	8107.56	356.315	8115.39	2.51644	104.756
44	50.119	8158.35	400.36	8168.17	2.80946	107.453
45	39.811	8208.13	434.581	8219.63	3.0307	109.635
46	31.623	8262.92	475.847	8276.61	3.29592	111.772
47	25.119	8322.46	521.813	8338.8	3.58772	114.864
48	19.953	8391.91	577.828	8411.78	3.9389	117.766
49	15.849	8457.19	637.347	8481.17	4.30975	121.083
50	12.589	8527.56	711.901	8557.23	4.77212	123.73
51	10	8609.04	787.654	8644.99	5.22753	126.487
52	7.9433	8696.35	882.752	8741.03	5.79615	129.55
53	6.3096	8790.99	989.712	8846.52	6.42346	132.787
54	5.0119	8900.4	1115.8	8970.07	7.14563	136.189
55	3.9811	9008.2	1263.13	9096.33	7.98199	139.876
56	3.1623	9133.85	1437.08	9246.21	8.94138	142.753
57	2.5119	9270.05	1641.3	9414.23	10.0404	146.52
58	1.9953	9423.27	1881.4	9609.25	11.2909	149.952
59	1.5849	9595.82	2172.22	9838.61	12.7551	153.389
60	1.2589	9777.53	2515.59	10095.9	14.4283	156.836
61	1	9981.24	2917.92	10399	16.2958	160.823
62	0.79433	10238.7	3411.87	10792.2	18.4297	165.505
63	0.63096	10490	3997.54	11225.9	20.8608	169.662
64	0.50119	10770.2	4673.01	11740.3	23.4553	173.904
65	0.39811	11100.4	5513.97	12394.4	26.4153	179.171
66	0.31623	11507.3	6540.22	13236	29.6119	184.459
67	0.25119	11965.5	7784.41	14274.8	33.0469	190.876
68	0.19953	12443.7	9372.38	15578.4	36.9864	197.848
69	0.15849	13045.3	11173.3	17176.2	40.5802	205.56
70	0.12589	13730.3	13377.1	19169.5	44.2536	215.012
71	0.1	14663.8	16017.5	21716.1	47.5262	226.124

File: Z_s3_1.2.txt
Index	Frequency (Hz)	Z' (Ω)	-Z'' (Ω)	Z (Ω)	-Phase (°)	Time (s)
1	1000000	3264.43	2502.12	4113.04	37.4695	75.1195
2	794330	3633.81	2263.93	4281.35	31.9237	77.5416
3	630960	4101.19	2129.52	4621.1	27.4403	80.3736
4	501190	4531.04	1983.72	4946.26	23.6442	83.2757
5	398110	4976.46	1822.33	5299.63	20.1122	85.6627
6	316230	5288.7	1671.19	5546.46	17.5361	87.7348
7	251190	5457.56	1453.33	5647.75	14.9117	89.9068
8	199530	5705.74	1317.17	5855.8	12.999	92.2188
9	158490	5912.61	1176.87	6028.6	11.2572	94.4759
10	125890	6074.56	1038.85	6162.75	9.70463	96.3879
11	100000	6209.97	909.66	6276.24	8.33364	98.2699
12	79433	6314.51	791.523	6363.93	7.14475	100.042
13	63096	6401.88	686.123	6438.54	6.11734	101.809
14	50119	6475.45	592.703	6502.52	5.22975	103.616
15	39811	6534	509.38	6553.83	4.45767	105.358
16	31623	6577.33	437.208	6591.85	3.80297	106.985
17	25119	6615.05	380.431	6625.98	3.29145	109.147
18	19953	6648.66	331.627	6656.92	2.85548	112.279
19	15849	6678.76	290.547	6685.07	2.49097	114.456
20	12589	6702.22	255.984	6707.11	2.18729	118.568
21	10000	6727.63	228.367	6731.51	1.94414	120.41
22	7943.3	6742.93	205.513	6746.06	1.74574	122.582
23	6309.6	6761.7	186.756	6764.27	1.58209	124.359
24	5011.9	6780.76	171.639	6782.93	1.44999	126.281
25	3981.1	6799.9	160.128	6801.79	1.34899	128.148
26	3162.3	6815.67	150.397	6817.33	1.26411	129.986
27	2511.9	6831.06	143.753	6832.57	1.20556	131.748
28	1995.3	6850.5	138.455	6851.9	1.15784	133.52
29	1584.9	6863.66	135.727	6865.01	1.13286	135.112
30	1258.9	6877.33	135.156	6878.66	1.12586	137.529
31	1000	6898.08	135.272	6899.41	1.12343	139.541
32	794.33	6912.55	137.826	6913.93	1.14224	141.708
33	630.96	6928.26	142.335	6929.72	1.17692	144.77
34	501.19	6942.91	147.39	6944.47	1.21614	146.492
35	398.11	6964.56	156.585	6966.32	1.28797	149.114
36	316.23	6981.31	166.014	6983.28	1.36223	151.246
37	251.19	7002.01	177.798	7004.27	1.45457	153.083
38	199.53	7023.34	193.122	7026	1.57508	155.105
39	158.49	7044.29	209.189	7047.39	1.70097	156.957
40	125.89	7069.27	228.059	7072.95	1.84776	159.124
41	100	7094.71	247.207	7099.01	1.9956	160.746
42	79.433	7125.78	271.845	7130.97	2.18475	162.928
43	63.096	7165.54	299.931	7171.82	2.39685	165.805
44	50.119	7197.13	328.253	7204.61	2.61138	168.167
45	39.811	7238.53	361.562	7247.56	2.85953	170.224
46	31.623	7281.59	396.167	7292.36	3.1142	172.146
47	25.119	7333.26	440.031	7346.45	3.4339	174.323
48	19.953	7386.96	490.673	7403.23	3.80025	176.555
49	15.849	7442.76	546.598	7462.8	4.20028	178.882
50	12.589	7512.13	614.083	7537.19	4.67328	181.494
51	10	7576.33	686.293	7607.35	5.17594	184.082
52	7.9433	7652.16	771.403	7690.94	5.75646	186.859
53	6.3096	7723.52	864.228	7771.72	6.38459	189.676
54	5.0119	7816.64	981.577	7878.02	7.15747	192.563
55	3.9811	7917.77	1121.72	7996.84	8.06347	195.395
56	3.1623	8027.44	1284.93	8129.63	9.09406	198.142
57	2.5119	8142.94	1478.12	8276.01	10.2884	201.139
58	1.9953	8263.73	1688.69	8434.51	11.5493	204.401
59	1.5849	8420.12	1967.51	8646.94	13.1522	207.748
60	1.2589	8575.2	2278.59	8872.77	14.8807	211.71
61	1	8743.78	2663.29	9140.39	16.9404	215.397
62	0.79433	8954.63	3124.64	9484.13	19.236	218.999
63	0.63096	9180.01	3661.34	9883.22	21.744	222.896
64	0.50119	9429.31	4315.8	10370.1	24.5936	227.098
65	0.39811	9700.73	5132.64	10974.9	27.8832	231.82
66	0.31623	10013.8	6093.54	11722.1	31.3212	237.218
67	0.25119	10450	7287.48	12740.1	34.8906	243.085
68	0.19953	10847	8736.35	13927.7	38.8486	249.567
69	0.15849	11357.9	10455.7	15437.7	42.6316	257.329
70	0.12589	11969.7	12602.1	17380.7	46.4743	266.586
71	0.1	12828	15131.3	19837.2	49.7093	277.238

File: Z_s3_1.3.txt
Index	Frequency (Hz)	Z' (Ω)	-Z'' (Ω)	Z (Ω)	-Phase (°)	Time (s)
1	1000000	3276.34	2735.74	4268.34	39.8618	39.0178
2	794330	3734.23	2503.07	4495.54	33.8341	41.5449
3	630960	4242.01	2375.78	4861.99	29.2514	43.9169
4	501190	4710.12	2234.05	5213.08	25.3754	46.2739
5	398110	5251.05	2021.64	5626.77	21.0566	48.601
6	316230	5604.26	1864.38	5906.24	18.4009	50.543
7	251190	5794.89	1643.01	6023.3	15.8295	52.6301
8	199530	6077.66	1491.12	6257.91	13.7849	54.2821
9	158490	6307.91	1332.71	6447.16	11.9298	56.1141
10	125890	6497.31	1177.73	6603.18	10.2741	57.9512
11	100000	6651.12	1030.8	6730.52	8.80968	60.2532
12	79433	6774.96	897.77	6834.18	7.54846	62.3702
13	63096	6873.93	777.008	6917.7	6.44917	64.3773
14	50119	6956.56	670.638	6988.81	5.50651	66.7343
15	39811	7021.89	575.481	7045.43	4.68522	68.5764
16	31623	7068.3	494.418	7085.57	4.00125	70.7534
17	25119	7113.03	429.324	7125.98	3.45403	72.6954
18	19953	7151.36	373.363	7161.1	2.98862	74.6925
19	15849	7184.97	326.628	7192.39	2.60287	76.9345
20	12589	7210.37	287.091	7216.09	2.28011	78.7515
21	10000	7238.64	254.442	7243.11	2.01315	81.1436
22	7943.3	7258.8	228.157	7262.39	1.80032	82.9206
23	6309.6	7280.15	206.728	7283.09	1.62654	85.0327
24	5011.9	7302.38	189.647	7304.85	1.48767	87.6647
25	3981.1	7316.69	174.81	7318.78	1.36865	89.6218
26	3162.3	7332.23	163.597	7334.06	1.27817	91.8538
27	2511.9	7350.1	155.683	7351.75	1.21341	93.9958
28	1995.3	7373.02	149.958	7374.55	1.16516	95.9279
29	1584.9	7394.66	146.188	7396.11	1.13256	98.6899
30	1258.9	7407.4	144.581	7408.81	1.11819	100.632
31	1000	7422.83	143.516	7424.22	1.10764	102.924
32	794.33	7443.2	146.235	7444.63	1.12553	105.836
33	630.96	7456.88	148.26	7458.36	1.13902	107.648
34	501.19	7470.19	154.376	7471.78	1.18389	109.88
35	398.11	7491.83	162.275	7493.59	1.24085	111.962
36	316.23	7517.15	171.545	7519.11	1.30729	113.854
37	251.19	7533.43	184.45	7535.69	1.40256	116.561
38	199.53	7556.67	198.827	7559.28	1.50719	118.563
39	158.49	7580.74	214.668	7583.78	1.62204	120.56
40	125.89	7605.06	233.748	7608.65	1.76048	123.067
41	100	7639.44	256.354	7643.74	1.92193	124.984
42	79.433	7672.1	282.819	7677.31	2.11116	127.401
43	63.096	7703.22	310.004	7709.45	2.30453	129.983
44	50.119	7739.6	347.121	7747.38	2.56799	132.541
45	39.811	7791.73	379.453	7800.96	2.78807	134.848
46	31.623	7838.6	419.015	7849.79	3.05985	137.455
47	25.119	7888.01	461.294	7901.49	3.34686	140.047
48	19.953	7933.65	507.184	7949.85	3.65783	142.519
49	15.849	7989.2	556.764	8008.57	3.98648	145.226
50	12.589	8060.28	624.828	8084.46	4.43267	148.258
51	10	8135.39	701.028	8165.53	4.92503	151.085
52	7.9433	8218.61	794.632	8256.94	5.52259	154.052
53	6.3096	8303.13	893.09	8351.02	6.13917	157.184
54	5.0119	8383.91	1004.59	8443.88	6.83283	160.346
55	3.9811	8489.69	1144.79	8566.52	7.67973	163.528
56	3.1623	8593.74	1305.25	8692.29	8.63627	167.15
57	2.5119	8714.57	1500.92	8842.87	9.77223	171.707
58	1.9953	8850.81	1730.2	9018.34	11.0609	174.924
59	1.5849	9001.5	2000.05	9221.02	12.5271	179.146
60	1.2589	9164.91	2322.64	9454.63	14.2209	183.253
61	1	9360.47	2708.75	9744.52	16.1395	189.168
62	0.79433	9571.59	3181.31	10086.4	18.3853	192.99
63	0.63096	9819.69	3720.51	10500.9	20.7509	197.077
64	0.50119	10075.2	4390.93	10990.4	23.5484	201.139
65	0.39811	10362.9	5244.82	11614.6	26.8447	205.576
66	0.31623	10705.3	6260.44	12401.5	30.3189	210.768
67	0.25119	11175.4	7411.58	13409.7	33.5526	216.65
68	0.19953	11599	8900.15	14620.2	37.4998	223.277
69	0.15849	12090.6	10651.2	16113.1	41.3782	231.004
70	0.12589	12767.8	12770.5	18058.3	45.006	240.092
71	0.1	13468.2	15172.8	20288.1	48.4061	250.749

File: Z_s3_1.4.txt
Index	Frequency (Hz)	Z' (Ω)	-Z'' (Ω)	Z (Ω)	-Phase (°)	Time (s)
1	1000000	3299.73	2539.65	4163.9	37.5838	56.9902
2	794330	3686.3	2289.56	4339.46	31.8444	58.7122
3	630960	4152.58	2155.84	4678.84	27.4364	60.5342
4	501190	4567.17	2026.63	4996.62	23.9287	62.4863
5	398110	5033.93	1843.09	5360.73	20.1094	64.4383
6	316230	5352.39	1693.04	5613.77	17.5529	66.2704
7	251190	5526.43	1467.84	5718.04	14.8745	68.0724
8	199530	5775.84	1327.58	5926.45	12.9447	69.7794
9	158490	5980.29	1183.77	6096.32	11.1967	71.4614
10	125890	6146.83	1043.54	6234.78	9.6352	73.1235
11	100000	6279.13	912.277	6345.06	8.2665	74.9455
12	79433	6386.03	792.94	6435.07	7.07808	76.5775
13	63096	6472.97	686.063	6509.23	6.05013	78.5196
14	50119	6541.53	591.627	6568.23	5.16787	80.1716
15	39811	6603.45	508.704	6623.02	4.40514	81.9536
16	31623	6643.46	436.575	6657.79	3.75978	83.4457
17	25119	6679.09	379.765	6689.88	3.25426	85.2527
18	19953	6714.88	331.07	6723.04	2.82262	86.8747
19	15849	6741.59	289.997	6747.82	2.46312	88.8368
20	12589	6768.56	256.142	6773.41	2.1672	90.6338
21	10000	6785.89	228.209	6789.73	1.92612	92.5758
22	7943.3	6807.39	205.277	6810.49	1.72723	94.1729
23	6309.6	6827.94	186.973	6830.5	1.56857	95.9099
24	5011.9	6844.77	172.13	6846.93	1.44056	97.5119
25	3981.1	6864.96	159.724	6866.82	1.33284	99.309
26	3162.3	6878.54	150.48	6880.19	1.25324	100.871
27	2511.9	6896.62	143.418	6898.11	1.19131	102.603
28	1995.3	6909.7	138.33	6911.08	1.14689	104.27
29	1584.9	6928.73	135.231	6930.05	1.11813	105.852
30	1258.9	6939.08	133.708	6940.37	1.10389	107.614
31	1000	6960.54	134.146	6961.84	1.10408	109.311
32	794.33	6971.84	136.407	6973.17	1.12087	111.243
33	630.96	6991.95	140.373	6993.36	1.15013	112.78
34	501.19	7004.34	145.98	7005.86	1.19395	114.592
35	398.11	7022.9	154.409	7024.6	1.25953	116.094
36	316.23	7043.5	163.945	7045.41	1.33338	117.911
37	251.19	7060.34	176.186	7062.53	1.42948	119.538
38	199.53	7083.3	189.865	7085.85	1.53543	121.275
39	158.49	7103.71	206.504	7106.71	1.66511	123.002
40	125.89	7129.09	224.29	7132.62	1.802	124.944
41	100	7155.36	244.922	7159.55	1.96042	126.526
42	79.433	7184.31	268.986	7189.34	2.1442	128.524
43	63.096	7227.22	298.48	7233.38	2.36494	130.376
44	50.119	7256.76	332.073	7264.35	2.62006	132.463
45	39.811	7296.69	359.028	7305.52	2.81692	134.245
46	31.623	7340.73	399.191	7351.58	3.1127	136.332
47	25.119	7388.02	439.227	7401.07	3.4023	138.209
48	19.953	7438.95	488.143	7454.95	3.75436	140.546
49	15.849	7500.16	542.811	7519.78	4.13947	142.998
50	12.589	7563.29	604.955	7587.44	4.57311	146.34
51	10	7630.65	677.119	7660.63	5.07096	148.907
52	7.9433	7699.51	760.847	7737.01	5.64351	151.794
53	6.3096	7779.49	857.642	7826.62	6.29111	154.691
54	5.0119	7868.23	970.195	7927.82	7.0294	157.483
55	3.9811	7960.04	1103.43	8036.15	7.89215	160.175
56	3.1623	8067.93	1263.43	8166.26	8.90019	163.247
57	2.5119	8182.11	1451.69	8309.89	10.0609	166.464
58	1.9953	8309.22	1672.89	8475.95	11.3832	169.501
59	1.5849	8450.02	1939.97	8669.85	12.93	172.568
60	1.2589	8606.59	2254.16	8896.89	14.6767	175.88
61	1	8786.75	2637.01	9173.92	16.7051	179.682
62	0.79433	9004.25	3086.2	9518.47	18.9191	183.395
63	0.63096	9212.54	3636.22	9904.19	21.5393	187.597
64	0.50119	9457.95	4300.74	10389.9	24.4524	191.674
65	0.39811	9750.13	5075.9	10992.3	27.5014	196.181
66	0.31623	10102	6059.96	11780.2	30.9586	201.453
67	0.25119	10430.6	7262.8	12710.1	34.8494	207.225
68	0.19953	10913.8	8637.01	13917.9	38.3576	213.737
69	0.15849	11448.8	10347.7	15432.1	42.1079	221.419
70	0.12589	11976.3	12488.1	17302.7	46.1985	230.426
71	0.1	12661	15147.1	19741.7	50.1087	241.689

File: Z_s3_1.5.txt
Index	Frequency (Hz)	Z' (Ω)	-Z'' (Ω)	Z (Ω)	-Phase (°)	Time (s)
1	1000000	3272.27	2790.64	4300.63	40.458	41.4039
2	794330	3744.02	2581.04	4547.47	34.5815	47.021
3	630960	4286.52	2440.3	4932.48	29.6527	52.1731
4	501190	4765.22	2327.16	5303.11	26.0292	57.7002
5	398110	5323.9	2124.88	5732.28	21.7579	63.2973
6	316230	5700.14	1952.63	6025.31	18.9094	67.9994
7	251190	5907.7	1706.31	6149.18	16.1102	74.3115
8	199530	6197.34	1543.14	6386.57	13.9824	79.1436
9	158490	6436.25	1376.18	6581.73	12.0691	84.6657
10	125890	6627.77	1213.47	6737.94	10.3753	90.3728
11	100000	6780.05	1059.96	6862.41	8.88541	95.2449
12	79433	6902.97	920.955	6964.14	7.5992	100.762
13	63096	7007.69	796.748	7052.84	6.48646	105.759
14	50119	7090.2	686.362	7123.34	5.52925	111.031
15	39811	7157.99	588.757	7182.17	4.70209	115.858
16	31623	7207.61	503.799	7225.2	3.99836	121.22
17	25119	7249.22	437.214	7262.39	3.45143	126.803
18	19953	7284.73	377.811	7294.52	2.96889	132.22
19	15849	7320	330.651	7327.46	2.58634	137.357
20	12589	7347.53	291.456	7353.31	2.27157	142.239
21	10000	7369.82	258.1	7374.34	2.00575	148.086
22	7943.3	7394.07	231.444	7397.69	1.79285	153.068
23	6309.6	7417.13	209.682	7420.1	1.61932	158.37
24	5011.9	7436.01	191.726	7438.48	1.47695	163.462
25	3981.1	7453.4	176.976	7455.5	1.3602	168.469
26	3162.3	7472.42	164.679	7474.24	1.2625	174.181
27	2511.9	7488.03	155.618	7489.64	1.19057	179.003
28	1995.3	7503.95	148.993	7505.43	1.13748	184.736
29	1584.9	7524.08	144.696	7525.47	1.10173	189.738
30	1258.9	7537.91	142.167	7539.25	1.08049	194.945
31	1000	7552.68	140.919	7554	1.06891	200.352
32	794.33	7569.3	141.984	7570.64	1.07462	205.679
33	630.96	7588.22	145.536	7589.61	1.09875	210.946
34	501.19	7603.64	151.527	7605.15	1.14165	215.908
35	398.11	7622.64	157.858	7624.27	1.18638	220.915
36	316.23	7641.4	165.279	7643.18	1.23908	226.032
37	251.19	7662.05	177.417	7664.1	1.32647	231.184
38	199.53	7682.77	190.561	7685.13	1.42085	236.052
39	158.49	7705.38	206.899	7708.16	1.53809	241.624
40	125.89	7728.69	221.769	7731.88	1.64361	246.216
41	100	7759.01	245.003	7762.87	1.8086	251.523
42	79.433	7785.68	268.432	7790.31	1.97464	256.52
43	63.096	7823.49	286.383	7828.73	2.0964	262.732
44	50.119	7843.23	322.106	7849.84	2.3517	268.439
45	39.811	7892.14	356.046	7900.17	2.58309	273.611
46	31.623	7945.89	393.897	7955.65	2.83797	279.573
47	25.119	7990.48	431.853	8002.14	3.0936	284.73
48	19.953	8035.73	483.971	8050.29	3.44661	290.873
49	15.849	8092.95	530.767	8110.34	3.7523	297.14
50	12.589	8152.31	597.48	8174.18	4.19169	303.372
51	10	8219.18	664.553	8246	4.62253	309.039
52	7.9433	8285.5	744.337	8318.87	5.13345	313.786
53	6.3096	8371.59	835.165	8413.15	5.69708	316.608
54	5.0119	8460.22	949.296	8513.31	6.40221	319.145
55	3.9811	8550.05	1077.48	8617.67	7.18261	322.212
56	3.1623	8648.68	1226.81	8735.26	8.07349	325.259
57	2.5119	8761.55	1407.57	8873.9	9.12673	328.471
58	1.9953	8891.48	1616.77	9037.28	10.3057	331.648
59	1.5849	9032.22	1873.69	9224.51	11.7195	334.845
60	1.2589	9188.55	2167.94	9440.84	13.2756	338.042
61	1	9364.22	2540.79	9702.79	15.1805	343.587
62	0.79433	9567.56	2975.36	10019.5	17.2749	347.094
63	0.63096	9780.35	3497.01	10386.7	19.6747	351.076
64	0.50119	10008.2	4102.84	10816.6	22.291	355.568
65	0.39811	10295.1	4899.58	11401.5	25.4504	360.005
66	0.31623	10596.1	5789.52	12074.6	28.6514	364.732
67	0.25119	10921.3	6941.22	12940.5	32.4387	370.829
68	0.19953	11386.3	8345.6	14117.2	36.2397	378.256
69	0.15849	11826.2	9917.44	15434.2	39.9833	387.093
70	0.12589	12366.1	11932.1	17184.1	43.9767	396.381
71	0.1	12986.5	14493.1	19460.2	48.1382	407.233