Folder: Streamlit_cement/data (part 13)

File: Z_s17_1.txt
Index	Frequency (Hz)	Z' (Ω)	-Z'' (Ω)	Z (Ω)	-Phase (°)	Time (s)
1	1000000	2456.77	1817.82	3056.17	36.4986	76.2655
2	794330	2744.74	1628.66	3191.57	30.6838	79.2976
3	630960	3059.04	1633.17	3467.7	28.097	81.9746
4	501190	3364.08	1560.76	3708.51	24.8888	84.6267
5	398110	3694.52	1440	3965.24	21.2942	89.6488
6	316230	3945.94	1340.76	4167.5	18.7668	94.4609
7	251190	4094.87	1183.47	4262.46	16.12	98.8479
8	199530	4301.57	1085.99	4436.54	14.1691	103.34
9	158490	4473.31	981.107	4579.64	12.3705	110.182
10	125890	4616.98	875.626	4699.27	10.7388	116.144
11	100000	4735.79	774.093	4798.64	9.28324	121.861
12	79433	4831.04	679.73	4878.62	8.00897	124.298
13	63096	4911.58	593.319	4947.28	6.88796	127.05
14	50119	4976.47	515.612	5003.11	5.9153	133.128
15	39811	5029.44	446.705	5049.24	5.07558	139.61
16	31623	5067.53	386.807	5082.27	4.36494	144.132
17	25119	5102.63	338.831	5113.87	3.79905	147.334
18	19953	5134.67	298.044	5143.32	3.32203	150.941
19	15849	5159.8	263.826	5166.54	2.92705	155.133
20	12589	5185.48	236.227	5190.86	2.60833	157.64
21	10000	5204.86	214.122	5209.26	2.35575	160.302
22	7943.3	5222.61	196.942	5226.32	2.15957	163.829
23	6309.6	5241.22	183.14	5244.42	2.00123	166.216
24	5011.9	5258.53	173.38	5261.39	1.88843	179.083
25	3981.1	5279.14	166.772	5281.77	1.80942	182.12
26	3162.3	5292.64	162.563	5295.13	1.75928	184.648
27	2511.9	5314.04	161.028	5316.48	1.73566	188.48
28	1995.3	5330.29	161.346	5332.73	1.73379	193.387
29	1584.9	5350.83	164.097	5353.35	1.75657	198.514
30	1258.9	5367.79	167.942	5370.42	1.79203	201.741
31	1000	5389.38	175.123	5392.23	1.86111	204.888
32	794.33	5412.17	183.36	5415.28	1.94039	208.735
33	630.96	5435	193.935	5438.46	2.04359	212.727
34	501.19	5460.41	206.574	5464.31	2.16653	216.634
35	398.11	5486	221.326	5490.47	2.31027	219.071
36	316.23	5512.88	238.325	5518.03	2.47539	222.098
37	251.19	5541.37	257.742	5547.36	2.66304	224.3
38	199.53	5572.67	280.59	5579.73	2.88247	226.847
39	158.49	5603.19	307.139	5611.6	3.13752	229.089
40	125.89	5639.98	338.037	5650.11	3.42996	231.646
41	100	5677.35	374.071	5689.66	3.76968	233.743
42	79.433	5721.71	415.843	5736.8	4.15684	235.555
43	63.096	5771.26	463.453	5789.84	4.59121	237.358
44	50.119	5826.61	519.834	5849.76	5.09827	239.67
45	39.811	5894.14	581.759	5922.78	5.63691	241.967
46	31.623	5964.23	649.553	5999.5	6.21548	245.009
47	25.119	6045.93	726.413	6089.41	6.85119	247.561
48	19.953	6136.36	812.098	6189.87	7.53882	250.238
49	15.849	6239.03	904.932	6304.31	8.25284	253.08
50	12.589	6349.25	1007.27	6428.66	9.01449	255.742
51	10	6467.86	1120.58	6564.21	9.82914	259.269
52	7.9433	6595.58	1253.27	6713.59	10.7589	262.621
53	6.3096	6733.2	1396.42	6876.47	11.7166	265.833
54	5.0119	6877.19	1568.23	7053.73	12.8457	268.91
55	3.9811	7032.75	1772.83	7252.76	14.1484	271.867
56	3.1623	7199.51	2015.86	7476.4	15.6423	275.144
57	2.5119	7382.91	2304.55	7734.23	17.3356	278.561
58	1.9953	7585.64	2650.3	8035.3	19.2586	282.978
59	1.5849	7809.73	3068.94	8391.08	21.453	287.705
60	1.2589	8058.3	3566.66	8812.34	23.8745	292.508
61	1	8344.31	4155.37	9321.73	26.4728	297.03
62	0.79433	8665.87	4876.4	9943.67	29.3671	300.917
63	0.63096	9039.54	5739.67	10707.8	32.4136	305.909
64	0.50119	9453.29	6754.83	11618.6	35.5476	310.676
65	0.39811	9916.74	8010	12747.6	38.9287	315.838
66	0.31623	10389.2	9519.94	14091.3	42.5	321.31
67	0.25119	11022.4	11359.8	15828.4	45.8636	327.492
68	0.19953	11721.1	13526.3	17898.2	49.0898	335.079
69	0.15849	12488.5	16284.2	20521.7	52.515	343.291
70	0.12589	13432.2	19599	23760.1	55.5752	352.644
71	0.1	14357.9	23412.4	27464.4	58.4808	375.813

File: Z_s18_1.2.txt
Index	Frequency (Hz)	Z' (Ω)	-Z'' (Ω)	Z (Ω)	-Phase (°)	Time (s)
1	1000000	2643.72	1910.83	3261.99	35.8587	142.163
2	794330	2966.55	1769.07	3453.99	30.8094	146.71
3	630960	3288.68	1659.31	3683.58	26.7734	149.292
4	501190	3609.2	1559.28	3931.63	23.3658	151.409
5	398110	3951.87	1418.07	4198.59	19.7398	153.511
6	316230	4199	1311.06	4398.92	17.34	155.853
7	251190	4328.87	1153.09	4479.81	14.9156	158.175
8	199530	4531.67	1051.34	4652.03	13.0614	160.512
9	158490	4696.1	943.579	4789.95	11.3611	162.309
10	125890	4830.01	838.097	4902.18	9.84388	163.926
11	100000	4938.95	738.084	4993.79	8.49947	165.928
12	79433	5029.68	646.68	5071.08	7.32649	167.85
13	63096	5107.45	564.434	5138.54	6.30627	169.542
14	50119	5166.66	490.009	5189.85	5.41776	171.069
15	39811	5217.48	424.563	5234.72	4.65209	172.751
16	31623	5255.31	367.799	5268.17	4.00338	174.578
17	25119	5288.04	322.355	5297.85	3.48839	176.25
18	19953	5320.68	283.557	5328.23	3.0506	178.067
19	15849	5346.22	250.733	5352.1	2.68515	180.014
20	12589	5370.79	224.33	5375.47	2.39177	182.971
21	10000	5389.61	202.531	5393.41	2.15206	184.709
22	7943.3	5409.7	184.938	5412.86	1.95798	186.776
23	6309.6	5427.9	171.818	5430.62	1.81307	189.573
24	5011.9	5444.12	161.105	5446.5	1.69503	191.8
25	3981.1	5461.72	153.74	5463.88	1.61237	193.842
26	3162.3	5481.57	148.763	5483.58	1.55456	195.944
27	2511.9	5496.9	145.558	5498.83	1.51684	198.231
28	1995.3	5513.78	144.551	5515.67	1.50174	200.428
29	1584.9	5533.12	145.721	5535.04	1.5086	202.905
30	1258.9	5550.72	148.966	5552.72	1.53729	205.107
31	1000	5567.58	152.996	5569.69	1.57408	207.109
32	794.33	5589.16	159.315	5591.43	1.63274	209.131
33	630.96	5607.91	167.868	5610.42	1.71458	211.118
34	501.19	5629.41	178.036	5632.23	1.81144	213.8
35	398.11	5649.95	190.651	5653.16	1.93265	216.207
36	316.23	5673.24	206.165	5676.98	2.08121	218.409
37	251.19	5699.69	224.485	5704.11	2.25545	220.571
38	199.53	5724.82	246.198	5730.11	2.46251	222.838
39	158.49	5753.02	272.101	5759.45	2.7079	224.9
40	125.89	5786.42	302.034	5794.3	2.98796	227.552
41	100	5820.91	337.51	5830.69	3.31842	229.684
42	79.433	5859.3	377.432	5871.44	3.68566	232.146
43	63.096	5907.65	422.179	5922.72	4.08758	235.563
44	50.119	5960.51	475.401	5979.44	4.56017	238.416
45	39.811	6021.46	533.151	6045.01	5.05988	241.418
46	31.623	6089.76	596.439	6118.9	5.59378	243.645
47	25.119	6169.13	666.681	6205.05	6.16786	246.417
48	19.953	6244.7	745.618	6289.05	6.80889	248.829
49	15.849	6339.86	831.183	6394.11	7.46913	251.731
50	12.589	6442.69	927.556	6509.12	8.1926	255.078
51	10	6551.73	1036.97	6633.29	8.99381	258.415
52	7.9433	6673.85	1161.1	6774.1	9.8694	261.677
53	6.3096	6805.91	1302.68	6929.46	10.8356	264.954
54	5.0119	6945.7	1465.13	7098.55	11.9114	268.646
55	3.9811	7098.55	1656.2	7289.2	13.133	271.918
56	3.1623	7273.41	1879.3	7512.27	14.4872	276.685
57	2.5119	7460.82	2140.75	7761.88	16.0099	280.152
58	1.9953	7664.53	2448.5	8046.12	17.7166	283.689
59	1.5849	7892.61	2810.38	8378.04	19.5996	287.216
60	1.2589	8145.83	3243.66	8767.88	21.7124	290.888
61	1	8424.15	3757.64	9224.22	24.0395	295.026
62	0.79433	8743.13	4368.74	9773.85	26.5502	299.148
63	0.63096	9089.41	5098.59	10421.8	29.2897	303.22
64	0.50119	9462.76	5978.17	11193	32.283	307.272
65	0.39811	9857.3	7051.71	12119.9	35.5792	311.774
66	0.31623	10354.2	8315.36	13279.9	38.7675	317.366
67	0.25119	10866	9900.75	14700.1	42.3388	323.428
68	0.19953	11520.9	11851.1	16528.1	45.8095	330.985
69	0.15849	12206.6	14173.9	18705.7	49.2649	338.907
70	0.12589	13014.6	16978	21392.4	52.5277	348.895
71	0.1	14004.4	20482.7	24812.6	55.6388	360.187

File: Z_s18_1.3.txt
Index	Frequency (Hz)	Z' (Ω)	-Z'' (Ω)	Z (Ω)	-Phase (°)	Time (s)
1	1000000	2719.72	2067.62	3416.42	37.2434	28.3436
2	794330	3038.4	1936.07	3602.81	32.5053	29.8907
3	630960	3408.6	1819.21	3863.69	28.0893	31.6077
4	501190	3762.35	1722.83	4138.04	24.6036	33.3697
5	398110	4140.04	1595.43	4436.82	21.075	35.2568
6	316230	4419.43	1476.69	4659.61	18.4763	36.9188
7	251190	4578.65	1300.35	4759.72	15.8547	38.7408
8	199530	4804.16	1186.52	4948.52	13.8732	40.3879
9	158490	4989.99	1065.88	5102.56	12.0574	42.0849
10	125890	5140.57	946.262	5226.93	10.4301	43.6619
11	100000	5265.7	832.962	5331.17	8.98894	45.244
12	79433	5365.5	728.895	5414.79	7.73618	46.876
13	63096	5448.61	634.974	5485.48	6.64719	48.433
14	50119	5516.59	551.055	5544.05	5.70438	50.06
15	39811	5574.85	476.923	5595.21	4.8897	51.5521
16	31623	5613.17	412.196	5628.28	4.19991	53.2941
17	25119	5649.25	361.571	5660.81	3.66212	54.8761
18	19953	5682	317.183	5690.84	3.19507	56.6282
19	15849	5708.34	279.656	5715.18	2.80472	58.3202
20	12589	5731.53	249.683	5736.97	2.4944	60.1272
21	10000	5756.86	224.377	5761.23	2.23201	61.7943
22	7943.3	5778.77	205.437	5782.42	2.03602	63.4313
23	6309.6	5796.32	189.939	5799.43	1.87684	65.1083
24	5011.9	5813.83	177.638	5816.54	1.75009	66.7404
25	3981.1	5832.41	168.382	5834.84	1.65368	68.5974
26	3162.3	5847.67	161.76	5849.91	1.58453	70.2294
27	2511.9	5866.67	158.055	5868.8	1.54324	71.9965
28	1995.3	5884.53	156.15	5886.6	1.52003	73.5735
29	1584.9	5903.94	156.731	5906.02	1.52067	75.2255
30	1258.9	5921.96	158.49	5924.08	1.53305	76.7525
31	1000	5940.29	162.55	5942.51	1.56745	78.4946
32	794.33	5955.77	168.101	5958.14	1.61674	80.1816
33	630.96	5978.94	176.404	5981.55	1.68998	81.9786
34	501.19	5996.72	186.559	5999.62	1.7819	83.7507
35	398.11	6019.9	199.446	6023.2	1.89758	85.4077
36	316.23	6044.17	213.936	6047.95	2.02717	87.0747
37	251.19	6067.57	232.693	6072.03	2.19623	88.8968
38	199.53	6094.57	254.191	6099.87	2.38829	90.5738
39	158.49	6121.26	279.903	6127.65	2.6181	92.3558
40	125.89	6151.2	309.378	6158.98	2.8793	94.0829
41	100	6185.94	344.937	6195.55	3.1916	95.8449
42	79.433	6223.33	386.993	6235.35	3.55831	97.7169
43	63.096	6273.16	430.419	6287.9	3.92507	99.574
44	50.119	6326.3	488.384	6345.12	4.41442	101.711
45	39.811	6383.47	545.763	6406.75	4.8867	103.728
46	31.623	6453.09	610.154	6481.87	5.40138	105.525
47	25.119	6528.25	684.087	6563.99	5.98212	107.877
48	19.953	6611.56	765.07	6655.68	6.60074	110.019
49	15.849	6704.2	851.42	6758.04	7.23771	112.371
50	12.589	6807.85	952.239	6874.13	7.96251	114.588
51	10	6920.56	1060.55	7001.35	8.71255	117.17
52	7.9433	7041.41	1189	7141.09	9.58444	119.742
53	6.3096	7174.09	1334.07	7297.08	10.5342	122.539
54	5.0119	7311.73	1494.96	7462.99	11.5555	125.141
55	3.9811	7466.86	1687.15	7655.09	12.7323	127.838
56	3.1623	7638.36	1914.31	7874.59	14.0695	130.771
57	2.5119	7823.99	2177.06	8121.23	15.5495	133.653
58	1.9953	8031.01	2488.69	8407.78	17.2175	136.575
59	1.5849	8262.88	2858.15	8743.24	19.0806	139.672
60	1.2589	8518.86	3289.59	9131.94	21.1143	142.874
61	1	8793.85	3812.41	9584.69	23.4382	148.218
62	0.79433	9110.85	4426.1	10129.1	25.9107	151.625
63	0.63096	9453.19	5175.1	10777	28.6983	155.357
64	0.50119	9818.77	6053.64	11534.9	31.6554	159.479
65	0.39811	10264.4	7145.58	12506.7	34.8437	164.211
66	0.31623	10745.9	8470.49	13682.9	38.2472	169.398
67	0.25119	11277.9	9997.47	15071.2	41.5558	175.125
68	0.19953	11969.7	11968.1	16926.6	44.9961	181.752
69	0.15849	12693.6	14314.2	19131.8	48.4339	189.37
70	0.12589	13515.9	17072.8	21775.2	51.6328	198.242
71	0.1	14334	20657.2	25143.2	55.2433	208.644

File: Z_s18_1.4.txt
Index	Frequency (Hz)	Z' (Ω)	-Z'' (Ω)	Z (Ω)	-Phase (°)	Time (s)
1	1000000	2697.13	1977.38	3344.33	36.2467	48.274
2	794330	2991.59	1822.51	3503.03	31.3503	50.1861
3	630960	3353.64	1729.51	3773.35	27.2807	51.9131
4	501190	3681.9	1623.73	4024.04	23.7976	53.7801
5	398110	4027.32	1496.94	4296.52	20.3899	55.4072
6	316230	4289.68	1382.7	4507.01	17.8657	57.1642
7	251190	4429.91	1205.38	4590.97	15.2217	58.8112
8	199530	4640.36	1096.3	4768.1	13.2925	60.6933
9	158490	4811.39	981.648	4910.51	11.5316	62.4203
10	125890	4949.54	868.924	5025.23	9.95719	64.1923
11	100000	5062.8	762.745	5119.93	8.56757	65.9493
12	79433	5153.55	666.024	5196.41	7.36387	67.7264
13	63096	5226.65	578.624	5258.58	6.31729	69.4684
14	50119	5288.41	501.362	5312.12	5.41568	71.2004
15	39811	5337.1	432.845	5354.63	4.63661	73.0425
16	31623	5374.96	373.676	5387.93	3.9769	74.8695
17	25119	5406.79	326.98	5416.67	3.4608	76.5515
18	19953	5436.21	286.954	5443.78	3.02159	78.3286
19	15849	5461.37	253.788	5467.26	2.6606	80.0356
20	12589	5483.63	225.99	5488.29	2.35992	81.6676
21	10000	5502.1	203.684	5505.87	2.12008	83.4847
22	7943.3	5521.79	186.309	5524.93	1.93247	85.1467
23	6309.6	5537.87	172.164	5540.55	1.78067	86.9337
24	5011.9	5555.15	161.563	5557.5	1.66589	88.5508
25	3981.1	5572.81	153.671	5574.93	1.57954	90.3378
26	3162.3	5589.46	148.097	5591.42	1.51774	91.8998
27	2511.9	5602.59	144.509	5604.46	1.47751	93.7119
28	1995.3	5619.64	143.096	5621.47	1.45863	95.3189
29	1584.9	5637.8	143.702	5639.63	1.46009	97.1109
30	1258.9	5651.34	145.158	5653.2	1.47135	98.678
31	1000	5668.84	149.799	5670.82	1.51369	100.535
32	794.33	5687.44	155.46	5689.56	1.56573	102.227
33	630.96	5704.73	162.897	5707.06	1.63562	103.954
34	501.19	5727.48	173.314	5730.11	1.73325	105.601
35	398.11	5745.98	184.59	5748.95	1.84	107.348
36	316.23	5766.51	199.041	5769.94	1.97688	109.4
37	251.19	5788.43	216.852	5792.49	2.14547	111.402
38	199.53	5811.39	237.856	5816.26	2.34377	112.904
39	158.49	5839.73	262.325	5845.62	2.57204	114.866
40	125.89	5869.11	291.371	5876.34	2.8421	116.483
41	100	5898.96	325.447	5907.93	3.15782	118.145
42	79.433	5938.7	364.314	5949.87	3.51046	119.827
43	63.096	5984.49	409.023	5998.45	3.90993	121.794
44	50.119	6033.72	460.049	6051.23	4.36016	123.776
45	39.811	6085.77	515.52	6107.57	4.84192	125.503
46	31.623	6152.08	574.384	6178.83	5.33391	127.465
47	25.119	6223.71	642.976	6256.84	5.89834	129.583
48	19.953	6302.14	721.707	6343.33	6.53292	131.65
49	15.849	6396.99	806.009	6447.57	7.18132	134.017
50	12.589	6489.51	897.866	6551.33	7.87723	136.404
51	10	6594.72	1001.32	6670.31	8.63365	139.076
52	7.9433	6709.34	1122.91	6802.66	9.50127	141.693
53	6.3096	6832.87	1256.83	6947.5	10.4224	144.485
54	5.0119	6967.97	1416.6	7110.52	11.4917	147.367
55	3.9811	7114.21	1601.77	7292.3	12.6886	150.014
56	3.1623	7272.19	1814.34	7495.1	14.0088	153.026
57	2.5119	7451.81	2067.99	7733.44	15.5101	156.088
58	1.9953	7646.91	2365.47	8004.41	17.1888	159.12
59	1.5849	7863.41	2721.38	8321.01	19.0898	162.182
60	1.2589	8101.91	3134.35	8687.07	21.1498	165.504
61	1	8363.01	3626.74	9115.54	23.4447	169.166
62	0.79433	8671.58	4227.5	9647.18	25.9898	173.263
63	0.63096	9000.89	4925.43	10260.4	28.6882	177.14
64	0.50119	9354.16	5795.6	11004.1	31.7813	181.387
65	0.39811	9724.53	6815.46	11875.1	35.0248	186.01
66	0.31623	10171.2	8066.13	12981.4	38.4156	191.147
67	0.25119	10679.9	9656.49	14398.2	42.119	197.119
68	0.19953	11271.4	11461.7	16075.2	45.4796	203.696
69	0.15849	11940.9	13698.9	18172.7	48.9225	211.388
70	0.12589	12664.1	16513.8	20810.7	52.5161	220.31
71	0.1	13716.2	19975.8	24231.5	55.5251	230.807

File: Z_s18_1.5.txt
Index	Frequency (Hz)	Z' (Ω)	-Z'' (Ω)	Z (Ω)	-Phase (°)	Time (s)
1	1000000	2683.78	2106.72	3411.88	38.1314	15.1174
2	794330	3019.99	1980.42	3611.43	33.2557	16.8744
3	630960	3420.29	1882.78	3904.26	28.8317	18.7215
4	501190	3767.67	1790.7	4171.57	25.4209	20.4785
5	398110	4170.71	1638.09	4480.87	21.4429	22.2705
6	316230	4460.87	1512.67	4710.37	18.7317	24.0026
7	251190	4621.04	1326.07	4807.54	16.0115	25.7246
8	199530	4850.58	1206.06	4998.27	13.963	27.5966
9	158490	5036.28	1079.45	5150.66	12.0974	29.3337
10	125890	5187.92	955.448	5275.17	10.4351	31.1157
11	100000	5313.53	838.903	5379.34	8.97184	32.6577
12	79433	5413.05	731.895	5462.3	7.70023	34.4148
13	63096	5492.39	635.109	5528.99	6.59606	36.0018
14	50119	5559.58	549.679	5586.68	5.64652	37.7738
15	39811	5614.57	474.377	5634.58	4.82947	39.4159
16	31623	5655.76	408.907	5670.53	4.13524	41.2579
17	25119	5693.31	357.287	5704.51	3.59092	42.8249
18	19953	5721.5	312.776	5730.04	3.12907	44.667
19	15849	5750.94	275.554	5757.54	2.7432	46.309
20	12589	5775.65	244.908	5780.84	2.42809	48.041
21	10000	5796.18	218.314	5800.29	2.15703	49.753
22	7943.3	5815.52	200.115	5818.96	1.9708	51.5851
23	6309.6	5833.96	184.09	5836.86	1.80736	53.3071
24	5011.9	5849.51	171.666	5852.03	1.68098	55.0091
25	3981.1	5869.7	162.517	5871.95	1.58597	56.5962
26	3162.3	5885.56	155.765	5887.62	1.51601	58.1932
27	2511.9	5904.53	151.38	5906.47	1.46862	59.9152
28	1995.3	5919.85	148.953	5921.72	1.44135	61.8023
29	1584.9	5937.5	148.936	5939.37	1.4369	63.6093
30	1258.9	5952.92	150.882	5954.83	1.4519	65.2863
31	1000	5973.42	153.903	5975.4	1.47588	67.1684
32	794.33	5991.23	159.432	5993.35	1.52433	68.7604
33	630.96	6008.3	166.635	6010.61	1.58864	70.6474
34	501.19	6029.44	175.867	6032	1.67074	72.4395
35	398.11	6048.4	187.693	6051.32	1.77742	74.0615
36	316.23	6071.18	202.37	6074.55	1.90913	75.4185
37	251.19	6094.16	219.115	6098.1	2.05918	76.9506
38	199.53	6119.01	239.99	6123.71	2.24602	78.2776
39	158.49	6145.07	264.634	6150.76	2.46589	79.9346
40	125.89	6172.49	292.33	6179.4	2.71151	81.5216
41	100	6207.23	326.626	6215.82	3.01214	83.2337
42	79.433	6245.32	366.156	6256.05	3.35535	85.3757
43	63.096	6293.42	406.447	6306.53	3.6952	87.0227
44	50.119	6339.93	457.09	6356.39	4.12372	88.7398
45	39.811	6395.64	519.076	6416.67	4.64001	90.3768
46	31.623	6460.95	579.855	6486.92	5.12842	92.1888
47	25.119	6532.31	648.103	6564.38	5.66605	93.8909
48	19.953	6612.06	726.487	6651.85	6.2701	96.3529
49	15.849	6701.88	808.183	6750.43	6.87612	98.735
50	12.589	6801.04	905.035	6860.99	7.58	100.987
51	10	6904.64	1009.19	6978	8.31552	103.894
52	7.9433	7023.64	1127.24	7113.52	9.1178	106.291
53	6.3096	7147.94	1263.25	7258.7	10.0224	108.808
54	5.0119	7282.59	1421.61	7420.05	11.0456	111.635
55	3.9811	7434.67	1608.62	7606.7	12.2087	114.727
56	3.1623	7595.44	1819.82	7810.41	13.4737	117.929
57	2.5119	7773.3	2074.96	8045.47	14.9457	120.676
58	1.9953	7969.2	2369.28	8313.94	16.5575	123.673
59	1.5849	8186.81	2720.05	8626.85	18.379	126.97
60	1.2589	8437.17	3120.86	8995.86	20.2991	130.468
61	1	8691.46	3630.53	9419.25	22.6709	134.335
62	0.79433	9003.5	4214.8	9941.21	25.0856	137.862
63	0.63096	9314.51	4930.65	10539	27.8946	141.479
64	0.50119	9672.05	5779.35	11267.2	30.8596	145.771
65	0.39811	10090.2	6814.2	12175.6	34.0324	150.398
66	0.31623	10548	8058.28	13273.9	37.3785	155.46
67	0.25119	10997.4	9561.92	14573	41.0059	161.272
68	0.19953	11665.8	11465.7	16357.1	44.5043	168.174
69	0.15849	12346.3	13749.3	18479	48.0776	175.856
70	0.12589	13072.2	16404.7	20976.1	51.4503	184.694
71	0.1	13835	19795.3	24150.8	55.0501	195.556

File: Z_s18_1.txt
Index	Frequency (Hz)	Z' (Ω)	-Z'' (Ω)	Z (Ω)	-Phase (°)	Time (s)
1	1000000	2284.57	2089.2	3095.81	42.4424	72.5755
2	794330	2669.4	2083.08	3385.98	37.9668	74.0825
3	630960	3131.35	1955.96	3692.04	31.9904	75.6945
4	501190	3551.04	1831.34	3995.46	27.281	77.5216
5	398110	3933.49	1659.62	4269.27	22.8759	79.1286
6	316230	4213.93	1500.76	4473.2	19.603	80.7256
7	251190	4363.23	1291	4550.21	16.4825	83.7427
8	199530	4568.07	1160.49	4713.17	14.2542	85.3397
9	158490	4736.41	1033.23	4847.8	12.3061	86.8617
10	125890	4874.57	912.809	4959.3	10.6063	88.3788
11	100000	4986.2	801.012	5050.13	9.12636	89.8958
12	79433	5079.43	700.196	5127.47	7.84871	91.7128
13	63096	5157.74	609.684	5193.65	6.7415	93.1498
14	50119	5221.84	529.045	5248.57	5.78512	95.3419
15	39811	5273.47	457.054	5293.24	4.95348	97.4789
16	31623	5314.3	395.116	5328.96	4.2521	99.496
17	25119	5350.48	345.372	5361.62	3.6933	101.223
18	19953	5379.96	302.814	5388.47	3.22152	102.695
19	15849	5407.16	267.016	5413.75	2.82708	105.787
20	12589	5429.57	237.971	5434.78	2.50959	108.049
21	10000	5448.85	214.397	5453.06	2.25327	109.911
22	7943.3	5468.72	195.947	5472.22	2.05207	112.843
23	6309.6	5486.63	181.929	5489.64	1.89916	115.305
24	5011.9	5505.25	171.001	5507.9	1.77912	118.667
25	3981.1	5523.73	163.214	5526.14	1.69247	121.149
26	3162.3	5537.46	158.634	5539.73	1.64093	122.951
27	2511.9	5555.41	155.997	5557.6	1.60845	124.893
28	1995.3	5573.48	155.973	5575.66	1.603	127.21
29	1584.9	5592.33	157.766	5594.56	1.61595	129.063
30	1258.9	5609.31	162.11	5611.66	1.6554	130.86
31	1000	5627.1	167.812	5629.6	1.70818	132.632
32	794.33	5650.21	176.078	5652.95	1.78494	134.174
33	630.96	5671.26	185.667	5674.3	1.8751	135.791
34	501.19	5694.62	198.175	5698.06	1.99311	137.448
35	398.11	5718.22	213.081	5722.19	2.13405	139.01
36	316.23	5742.02	229.838	5746.62	2.29218	140.967
37	251.19	5769.9	251.173	5775.37	2.4926	143.064
38	199.53	5799.19	275.517	5805.73	2.72005	144.811
39	158.49	5830.66	302.995	5838.52	2.97475	146.448
40	125.89	5867.28	334.731	5876.82	3.26521	148.2
41	100	5900.73	373.452	5912.54	3.62136	150.462
42	79.433	5949.57	416.786	5964.15	4.0072	151.874
43	63.096	5998.31	468.827	6016.6	4.46914	153.836
44	50.119	6059.49	521.712	6081.91	4.92093	156.313
45	39.811	6120.73	583.874	6148.52	5.44912	158.535
46	31.623	6192.21	652.035	6226.44	6.01105	161.132
47	25.119	6277.17	728.611	6319.31	6.62088	163.329
48	19.953	6364.43	817.293	6416.69	7.31763	166.216
49	15.849	6465.92	908.376	6529.42	7.99695	169.213
50	12.589	6573.22	1015.14	6651.15	8.77919	173.265
51	10	6695.51	1135.58	6791.12	9.62593	176.702
52	7.9433	6826.99	1271.56	6944.39	10.5507	180.054
53	6.3096	6966.35	1424	7110.4	11.5527	183.037
54	5.0119	7119.55	1603.12	7297.81	12.6897	186.479
55	3.9811	7290.63	1808.71	7511.64	13.9331	190.131
56	3.1623	7475.74	2049.71	7751.64	15.3326	193.853
57	2.5119	7677.27	2331.4	8023.46	16.8922	197.05
58	1.9953	7902.76	2663.93	8339.68	18.6284	200.367
59	1.5849	8146.12	3058.71	8701.44	20.5802	203.859
60	1.2589	8421.71	3524.27	9129.38	22.708	207.401
61	1	8719.25	4074.79	9624.41	25.0482	211.488
62	0.79433	9066.11	4747.5	10233.9	27.639	215.525
63	0.63096	9436.36	5543.45	10944.2	30.4324	219.567
64	0.50119	9840.72	6486.5	11786.2	33.3908	223.994
65	0.39811	10304.4	7652.61	12835.2	36.5996	228.981
66	0.31623	10822.5	9033.29	14097.1	39.8508	234.343
67	0.25119	11415.8	10747.2	15678.8	43.272	240.576
68	0.19953	12208.2	12785.2	17677.7	46.3224	247.548
69	0.15849	13015.6	15319.2	20101.9	49.6479	255.365
70	0.12589	14009.7	18296.8	23044.4	52.559	264.847
71	0.1	15082.4	21854.3	26553.5	55.3892	276.094