Folder: Streamlit_cement/data (part 12)

File: Z_s16_1.4.txt
Index	Frequency (Hz)	Z' (Ω)	-Z'' (Ω)	Z (Ω)	-Phase (°)	Time (s)
1	1000000	4231.52	3815.25	5697.54	42.0386	20.5465
2	794330	4894.8	3437.9	5981.48	35.0826	22.2385
3	630960	5642.94	3188.52	6481.47	29.4685	24.2356
4	501190	6311.68	2965.64	6973.68	25.1672	25.9176
5	398110	7095.28	2752.49	7610.47	21.2029	27.7446
6	316230	7584.85	2519.54	7992.37	18.3755	29.3117
7	251190	7842.86	2179.77	8140.13	15.5323	31.0737
8	199530	8212.77	1962.09	8443.9	13.4365	32.7857
9	158490	8507.39	1739.66	8683.43	11.557	34.5828
10	125890	8749.46	1525.64	8881.48	9.8912	36.1598
11	100000	8937.21	1325.54	9034.97	8.43643	37.9418
12	79433	9087.37	1145.7	9159.3	7.18571	39.6889
13	63096	9215.84	985.976	9268.43	6.10668	41.4059
14	50119	9313.13	844.188	9351.31	5.17941	43.0579
15	39811	9390.08	719.047	9417.57	4.37889	44.755
16	31623	9446.94	610.402	9466.64	3.69696	46.537
17	25119	9489.52	529.888	9504.3	3.19604	48.134
18	19953	9541.85	459.52	9552.91	2.75714	49.9711
19	15849	9574.91	400.53	9583.28	2.39535	51.6581
20	12589	9607.09	351.584	9613.52	2.09588	53.4701
21	10000	9636.78	311.81	9641.82	1.85323	55.0171
22	7943.3	9667.71	279.396	9671.75	1.65538	57.8912
23	6309.6	9691.87	252.735	9695.17	1.49377	59.6732
24	5011.9	9711.33	231.977	9714.1	1.36838	61.4603
25	3981.1	9736.25	214.756	9738.62	1.26359	63.3623
26	3162.3	9758.39	201.463	9760.47	1.18271	65.1893
27	2511.9	9779.81	190.743	9781.67	1.11734	67.2414
28	1995.3	9800.69	182.952	9802.4	1.06943	68.9534
29	1584.9	9823.2	177.898	9824.81	1.03751	70.6254
30	1258.9	9843.02	173.757	9844.55	1.01133	72.3275
31	1000	9862.48	173.333	9864	1.00687	74.1595
32	794.33	9883.42	173.143	9884.93	1.00364	75.9265
33	630.96	9906.26	176.521	9907.83	1.02085	77.6386
34	501.19	9931.6	180.174	9933.24	1.03932	79.4156
35	398.11	9950.25	186.745	9952.01	1.07519	80.9276
36	316.23	9972.66	194.936	9974.56	1.11982	82.6397
37	251.19	9996.14	207.574	9998.29	1.1896	84.3067
38	199.53	10020.5	221.88	10023	1.26847	86.1737
39	158.49	10042.3	238.742	10045.2	1.36187	87.8658
40	125.89	10071.8	261.066	10075.2	1.4848	89.7328
41	100	10101.2	287.847	10105.3	1.63229	91.3248
42	79.433	10137.7	313.6	10142.5	1.77183	93.1619
43	63.096	10181.5	342.796	10187.3	1.92834	94.9239
44	50.119	10216.5	392.55	10224	2.2004	96.9059
45	39.811	10273.2	421.679	10281.8	2.35048	98.588
46	31.623	10323.8	465.504	10334.3	2.58173	100.66
47	25.119	10396.4	511.269	10408.9	2.8154	102.577
48	19.953	10463.6	560.372	10478.6	3.06553	104.884
49	15.849	10535.9	614.581	10553.8	3.33841	107.726
50	12.589	10614.7	667.368	10635.6	3.59758	110.043
51	10	10700.6	732.356	10725.6	3.91525	112.83
52	7.9433	10797.6	798.401	10827	4.22891	115.492
53	6.3096	10881.6	877.948	10916.9	4.61275	118.269
54	5.0119	10984.1	969.33	11026.7	5.04322	121.116
55	3.9811	11089.3	1081.6	11141.9	5.57075	123.743
56	3.1623	11191.8	1205.25	11256.5	6.14652	126.58
57	2.5119	11309.1	1354.98	11390	6.83219	129.603
58	1.9953	11440.5	1537.27	11543.4	7.653	132.745
59	1.5849	11563.5	1749.93	11695.1	8.60541	136.062
60	1.2589	11719.4	2011.74	11890.8	9.7404	139.439
61	1	11870.9	2329.55	12097.3	11.1027	143.311
62	0.79433	12066.1	2697	12363.8	12.5996	147.173
63	0.63096	12245.2	3154.38	12644.9	14.4454	151.09
64	0.50119	12453.7	3746.15	13005	16.7415	155.372
65	0.39811	12635	4428.76	13388.7	19.3163	160.034
66	0.31623	12883.4	5279.16	13923	22.2821	165.236
67	0.25119	13225.1	6425.3	14703.3	25.9125	171.008
68	0.19953	13507.4	7653.24	15524.9	29.5357	177.5
69	0.15849	13910	9234.72	16696.4	33.5797	185.098
70	0.12589	14417.3	11217.2	18267.1	37.8842	194.025
71	0.1	15096.1	13560.9	20292.6	41.9335	205.252

File: Z_s16_1.5.txt
Index	Frequency (Hz)	Z' (Ω)	-Z'' (Ω)	Z (Ω)	-Phase (°)	Time (s)
1	1000000	4074.32	3953.62	5677.25	44.1386	21.5555
2	794330	4722.31	3629.24	5955.8	37.5434	23.5626
3	630960	5623.12	3390.59	6566.24	31.0889	25.5246
4	501190	6388.97	3180.05	7136.64	26.4614	27.6417
5	398110	7194.99	2959.51	7779.88	22.3588	29.7437
6	316230	7723.26	2710.63	8185.12	19.3395	31.5407
7	251190	8016.41	2343.27	8351.87	16.2941	34.7198
8	199530	8409.49	2095.73	8666.69	13.9937	36.5018
9	158490	8722.67	1855.16	8917.76	12.0069	38.2638
10	125890	8970.32	1632.15	9117.6	10.3121	40.4259
11	100000	9173.03	1414.23	9281.41	8.76444	42.0879
12	79433	9336.85	1218.47	9416.02	7.43514	43.6849
13	63096	9462.13	1047.02	9519.88	6.31428	45.257
14	50119	9562.75	894.644	9604.51	5.34476	46.839
15	39811	9648.85	761.021	9678.82	4.50968	48.356
16	31623	9708.23	647.278	9729.78	3.81445	50.0581
17	25119	9754.17	561.752	9770.33	3.29608	51.5351
18	19953	9804.45	486.113	9816.49	2.83845	53.0521
19	15849	9844.91	421.696	9853.93	2.4527	54.6891
20	12589	9870.9	370.655	9877.86	2.15046	56.3062
21	10000	9902.55	327.888	9907.98	1.89646	61.2643
22	7943.3	9934.64	292.789	9938.96	1.68811	62.5863
23	6309.6	9955.29	265.381	9958.83	1.52699	64.0233
24	5011.9	9984.69	242.025	9987.62	1.38855	65.4203
25	3981.1	10004.3	223.809	10006.8	1.28157	66.8324
26	3162.3	10022.4	209.185	10024.6	1.19569	68.1394
27	2511.9	10044.9	198.905	10046.8	1.13441	69.5214
28	1995.3	10069.2	190.226	10071	1.08229	70.9584
29	1584.9	10094	184.879	10095.7	1.0493	72.2955
30	1258.9	10114.8	181.466	10116.4	1.02781	74.0475
31	1000	10133.6	179.44	10135.2	1.01446	75.4145
32	794.33	10153.6	179.627	10155.2	1.01351	76.9666
33	630.96	10171.4	181.784	10173	1.02389	78.3536
34	501.19	10195.2	186.833	10196.9	1.04986	79.8606
35	398.11	10217.2	194.076	10219.1	1.0882	81.2776
36	316.23	10240	203.452	10242	1.13822	82.7047
37	251.19	10262.6	215.562	10264.8	1.2033	84.1167
38	199.53	10290.5	230.384	10293	1.28253	85.5187
39	158.49	10310.4	247.899	10313.4	1.37733	87.0707
40	125.89	10340.4	266.357	10343.8	1.47555	88.6778
41	100	10374.8	298.631	10379.1	1.64877	90.2798
42	79.433	10403.5	325.078	10408.6	1.78973	91.9218
43	63.096	10459.1	374.686	10465.8	2.05168	93.5839
44	50.119	10472.1	397.604	10479.6	2.17436	95.3559
45	39.811	10545.8	437.831	10554.8	2.3774	96.9879
46	31.623	10608.3	483.998	10619.3	2.61228	98.625
47	25.119	10664.6	530.139	10677.7	2.84585	100.402
48	19.953	10738	584.857	10753.9	3.11759	102.374
49	15.849	10824.9	632.69	10843.4	3.34499	104.851
50	12.589	10893.4	694.563	10915.5	3.64824	107.418
51	10	10989.9	766.017	11016.6	3.98716	110.14
52	7.9433	11084.2	840.639	11116	4.33707	113.112
53	6.3096	11175.9	912.509	11213.1	4.66782	116.309
54	5.0119	11272.6	1007.57	11317.5	5.10769	119.466
55	3.9811	11378.3	1125.33	11433.8	5.64828	122.383
56	3.1623	11498.1	1256.82	11566.6	6.23805	125.965
57	2.5119	11615.3	1411.39	11700.8	6.92812	130.013
58	1.9953	11743.1	1604.51	11852.2	7.78039	133.86
59	1.5849	11895.1	1831.27	12035.2	8.75208	138.292
60	1.2589	12025.3	2097.02	12206.8	9.89197	141.784
61	1	12207.2	2425.69	12445.9	11.2388	147.543
62	0.79433	12412.9	2825.36	12730.4	12.8229	151.09
63	0.63096	12600.6	3295.1	13024.3	14.6549	155.632
64	0.50119	12811.5	3885.09	13387.7	16.8699	159.759
65	0.39811	13005.4	4607.92	13797.6	19.5096	164.506
66	0.31623	13289.2	5489.19	14378.2	22.4434	169.758
67	0.25119	13575.9	6678.85	15129.8	26.1956	175.575
68	0.19953	13914.4	7915.86	16008.5	29.6354	182.148
69	0.15849	14388.7	9492.15	17237.6	33.4126	190.01
70	0.12589	14780.6	11516.9	18737.8	37.9255	199.062
71	0.1	15455.2	14136.7	20945.4	42.4488	209.774

File: Z_s16_1.txt
Index	Frequency (Hz)	Z' (Ω)	-Z'' (Ω)	Z (Ω)	-Phase (°)	Time (s)
1	1000000	4324.89	3757.94	5729.47	40.9877	32.9587
2	794330	5294.33	3526.25	6361.16	33.6653	35.6108
3	630960	5648.08	3113.61	6449.45	28.8665	38.8078
4	501190	6286.91	2939.46	6940.15	25.0586	41.1049
5	398110	7078.06	2707.22	7578.12	20.9309	44.1619
6	316230	7548.49	2487.06	7947.66	18.2359	46.759
7	251190	7816.13	2165.92	8110.68	15.4885	49.9561
8	199530	8188.33	1960.77	8419.82	13.4664	51.8731
9	158490	8491.46	1748.1	8669.53	11.6327	55.4402
10	125890	8733.08	1539.24	8867.69	9.99595	57.9372
11	100000	8930.95	1343.62	9031.46	8.55569	60.0292
12	79433	9089.97	1166.06	9164.45	7.31	62.1813
13	63096	9217.78	1006.24	9272.53	6.22993	64.2033
14	50119	9322.44	864.449	9362.43	5.29776	66.6254
15	39811	9402.79	739.393	9431.82	4.49623	68.5924
16	31623	9459.98	629.38	9480.89	3.80632	70.6494
17	25119	9513.7	548.061	9529.47	3.29703	72.8765
18	19953	9556.12	477.09	9568.02	2.85812	75.8935
19	15849	9600.51	417.699	9609.6	2.49125	78.3856
20	12589	9635.87	368.883	9642.93	2.19234	81.3376
21	10000	9664.36	329.988	9669.99	1.9556	83.3897
22	7943.3	9693.95	298.833	9698.55	1.76568	87.3437
23	6309.6	9715.93	273.596	9719.78	1.61299	89.3308
24	5011.9	9744.28	255.025	9747.62	1.49919	91.4828
25	3981.1	9771.77	240.414	9774.72	1.40936	93.3549
26	3162.3	9799.26	230.845	9801.98	1.34949	95.7369
27	2511.9	9821.96	223.74	9824.51	1.30495	97.7739
28	1995.3	9845.56	221.062	9848.04	1.28625	100.931
29	1584.9	9871.44	220.256	9873.9	1.27819	103.973
30	1258.9	9897.8	223.841	9900.33	1.29554	105.71
31	1000	9921.64	227.824	9924.25	1.31542	107.992
32	794.33	9952.5	234.735	9955.26	1.3511	111.069
33	630.96	9982.2	245.538	9985.22	1.40905	113.426
34	501.19	10012.2	257.192	10015.5	1.47148	115.708
35	398.11	10044.3	272.321	10048	1.55303	118.675
36	316.23	10079	291.214	10083.2	1.655	120.812
37	251.19	10116.3	313.158	10121.2	1.77307	123.239
38	199.53	10154.5	336.122	10160	1.89585	125.656
39	158.49	10195	362.92	10201.5	2.03874	128.429
40	125.89	10244.5	393.925	10252.1	2.20207	131.281
41	100	10288	429.197	10297	2.38889	133.628
42	79.433	10347	469.409	10357.6	2.59754	135.875
43	63.096	10416.5	511.241	10429.1	2.80981	137.887
44	50.119	10462.1	572.54	10477.8	3.13238	141.274
45	39.811	10544.8	622.937	10563.2	3.38084	143.686
46	31.623	10628.8	677.173	10650.3	3.64546	145.953
47	25.119	10716.4	748.488	10742.5	3.99535	148.72
48	19.953	10813.4	830.57	10845.2	4.39223	151.912
49	15.849	10920.7	907.471	10958.3	4.75017	155.334
50	12.589	11027.1	1005.64	11072.9	5.21079	159.241
51	10	11144	1103.81	11198.5	5.65669	162.933
52	7.9433	11276.2	1226.14	11342.6	6.20583	166.245
53	6.3096	11419.3	1362.53	11500.3	6.80425	170.602
54	5.0119	11562.5	1517.8	11661.7	7.4784	174.049
55	3.9811	11732.8	1701.44	11855.5	8.25127	177.626
56	3.1623	11908.7	1916.45	12061.9	9.14219	181.238
57	2.5119	12107	2169.87	12299.9	10.1609	185.346
58	1.9953	12317.1	2468	12562	11.3304	189.123
59	1.5849	12541.9	2821.85	12855.5	12.68	192.845
60	1.2589	12800.4	3233.54	13202.5	14.177	197.727
61	1	13088.2	3735.32	13610.7	15.9286	201.779
62	0.79433	13407.4	4325.22	14087.8	17.8797	205.596
63	0.63096	13785.3	5048.6	14680.7	20.1143	210.468
64	0.50119	14178.6	5850.17	15338.1	22.4213	215.21
65	0.39811	14581.6	6909.35	16135.8	25.3535	220.727
66	0.31623	15096	8089.84	17127	28.1866	226.304
67	0.25119	15650.9	9598.2	18359.6	31.5195	232.481
68	0.19953	16431.4	11410.1	20004.6	34.7764	239.499
69	0.15849	17236.1	13658.2	21991.5	38.3939	247.536
70	0.12589	18179.5	16295.9	24414.1	41.8726	256.963
71	0.1	19039	19173.9	27020.7	45.2023	279.977

File: Z_s17_1.2.txt
Index	Frequency (Hz)	Z' (Ω)	-Z'' (Ω)	Z (Ω)	-Phase (°)	Time (s)
1	1000000	2525.57	1741.67	3067.89	34.5907	25.7976
2	794330	2779.31	1611.71	3212.81	30.1092	27.3446
3	630960	3081.16	1526.73	3438.67	26.3585	29.9117
4	501190	3372.55	1441.01	3667.51	23.1359	31.9237
5	398110	3671.5	1317.38	3900.69	19.7386	49.061
6	316230	3901.51	1222.71	4088.62	17.4006	51.1381
7	251190	4028.65	1078.97	4170.64	14.9933	58.8452
8	199530	4216.9	988.052	4331.11	13.1869	60.6172
9	158490	4373.87	890.912	4463.68	11.5131	62.3893
10	125890	4503.62	794.786	4573.22	10.0083	64.0413
11	100000	4611.07	702.738	4664.31	8.66533	66.1883
12	79433	4696.09	616.932	4736.44	7.48416	68.1554
13	63096	4768.97	539.189	4799.36	6.45057	71.0874
14	50119	4831.91	469.436	4854.66	5.54907	75.4895
15	39811	4878.75	406.833	4895.68	4.7668	77.2515
16	31623	4915.17	352.275	4927.77	4.09943	78.9686
17	25119	4949.59	309.233	4959.24	3.57499	80.8156
18	19953	4978.14	271.569	4985.54	3.12252	82.5226
19	15849	4999.87	239.74	5005.62	2.74519	84.0297
20	12589	5025.85	214.237	5030.41	2.44087	86.9517
21	10000	5042.15	193.229	5045.86	2.19465	89.3138
22	7943.3	5064.08	176.815	5067.16	1.9997	91.3558
23	6309.6	5078.77	163.371	5081.4	1.84242	93.0428
24	5011.9	5096.1	153.517	5098.41	1.72548	94.6949
25	3981.1	5114.18	146.067	5116.26	1.63599	96.4019
26	3162.3	5129.68	140.799	5131.62	1.57225	97.9089
27	2511.9	5144.05	137.386	5145.88	1.52987	99.891
28	1995.3	5161.18	136.045	5162.97	1.50992	101.538
29	1584.9	5174.65	136.473	5176.45	1.51073	104.235
30	1258.9	5194.41	138.169	5196.24	1.52368	105.632
31	1000	5209.6	141.225	5211.51	1.55283	107.039
32	794.33	5228.04	146.191	5230.08	1.60174	108.921
33	630.96	5246.55	152.564	5248.77	1.66563	111.238
34	501.19	5268.11	160.714	5270.56	1.74738	128.51
35	398.11	5290.47	170.473	5293.22	1.84558	130.388
36	316.23	5309.68	182.405	5312.81	1.96752	132.72
37	251.19	5329.37	196.981	5333.01	2.11677	134.352
38	199.53	5351.51	214.524	5355.81	2.29557	136.279
39	158.49	5376.33	235.761	5381.5	2.5109	138.061
40	125.89	5404.13	260.587	5410.41	2.76067	141.488
41	100	5433.07	289.781	5440.79	3.05306	143.895
42	79.433	5470.75	323.82	5480.33	3.38745	146.917
43	63.096	5508.98	362.063	5520.87	3.7602	149.319
44	50.119	5553.31	408.333	5568.31	4.20536	152.836
45	39.811	5604.45	455.599	5622.94	4.64749	154.858
46	31.623	5663.56	509.833	5686.47	5.14389	157.255
47	25.119	5726.8	567.902	5754.89	5.66326	160.712
48	19.953	5803.13	635.471	5837.82	6.24927	164.149
49	15.849	5878.02	705.174	5920.17	6.84097	167.456
50	12.589	5968.98	784.801	6020.35	7.49028	169.823
51	10	6057.37	872.734	6119.91	8.19865	172.44
52	7.9433	6156.11	975.204	6232.88	9.00155	175.312
53	6.3096	6261.38	1092.22	6355.93	9.895	177.909
54	5.0119	6371.33	1230.85	6489.13	10.934	180.931
55	3.9811	6492.91	1395.15	6641.11	12.1269	184.754
56	3.1623	6625.1	1590.23	6813.28	13.4975	188.016
57	2.5119	6769.13	1823.69	7010.48	15.0782	191.568
58	1.9953	6926.05	2097.85	7236.79	16.8512	194.84
59	1.5849	7107.35	2429.82	7511.22	18.8742	199.492
60	1.2589	7300.86	2835.25	7832.06	21.2235	203.289
61	1	7521.94	3303.42	8215.36	23.7097	207.921
62	0.79433	7769.81	3887.87	8688.24	26.5826	212.503
63	0.63096	8056.76	4564.06	9259.71	29.5311	217.055
64	0.50119	8372.13	5391.03	9957.7	32.7785	222.132
65	0.39811	8725.05	6398.6	10819.8	36.2548	227.304
66	0.31623	9128.21	7650.52	11910.3	39.967	232.391
67	0.25119	9538.87	9141.82	13212.2	43.7824	239.559
68	0.19953	10083.5	10995.1	14918.8	47.4764	247.081
69	0.15849	10642.2	13128	16899.7	50.9701	256.028
70	0.12589	11368.8	15835.6	19494	54.3245	265.795
71	0.1	12100.2	19183.6	22680.9	57.7579	277.322

File: Z_s17_1.3.txt
Index	Frequency (Hz)	Z' (Ω)	-Z'' (Ω)	Z (Ω)	-Phase (°)	Time (s)
1	1000000	2574.56	1916.58	3209.62	36.6651	20.5665
2	794330	2869.84	1782.63	3378.43	31.8468	22.2385
3	630960	3206.95	1710.28	3634.49	28.0712	23.9756
4	501190	3526.81	1625.68	3883.46	24.7472	25.7876
5	398110	3886.36	1491.22	4162.63	20.9921	27.7496
6	316230	4147.57	1386.49	4373.18	18.4843	29.3617
7	251190	4295.7	1224.71	4466.87	15.9129	31.1887
8	199530	4506.96	1121.21	4644.33	13.9701	33.0657
9	158490	4686.11	1011.7	4794.07	12.1828	34.7428
10	125890	4830.72	901.301	4914.08	10.5686	36.3848
11	100000	4953.76	796.898	5017.44	9.13873	38.1518
12	79433	5052.99	699.343	5101.16	7.87977	39.7938
13	63096	5134.31	610.933	5170.53	6.78573	41.5359
14	50119	5198.39	530.722	5225.41	5.82933	43.1779
15	39811	5256.58	459.906	5276.66	5.00016	44.9949
16	31623	5294.97	397.862	5309.89	4.29711	46.637
17	25119	5334.02	348.19	5345.37	3.73481	48.354
18	19953	5364.29	304.816	5372.94	3.25223	49.931
19	15849	5395.02	268.973	5401.73	2.85416	51.6331
20	12589	5417.18	238.979	5422.45	2.52597	53.2851
21	10000	5436.86	215.178	5441.11	2.26645	55.2171
22	7943.3	5455.45	194.868	5458.93	2.04573	56.8442
23	6309.6	5475.38	179.565	5478.33	1.87834	58.5962
24	5011.9	5492.82	167.581	5495.38	1.7475	60.2332
25	3981.1	5510.37	158.318	5512.64	1.6457	62.0203
26	3162.3	5524.31	151.575	5526.39	1.57168	63.5873
27	2511.9	5543.78	147.214	5545.74	1.52112	65.4043
28	1995.3	5558.87	144.424	5560.75	1.48825	67.0864
29	1584.9	5575.24	143.912	5577.1	1.47863	68.7634
30	1258.9	5592.68	145.56	5594.58	1.49089	70.3054
31	1000	5609.8	147.416	5611.73	1.50529	71.8974
32	794.33	5628.99	151.961	5631.04	1.54639	73.6045
33	630.96	5647.31	157.804	5649.51	1.60061	75.0115
34	501.19	5667.39	165.555	5669.81	1.67324	76.6785
35	398.11	5687.26	175.029	5689.95	1.76276	78.1456
36	316.23	5707.46	187.263	5710.53	1.87921	79.9326
37	251.19	5728.03	200.964	5731.56	2.00936	81.7046
38	199.53	5752.18	218.481	5756.33	2.17518	83.4067
39	158.49	5775.13	239.173	5780.08	2.37151	85.0537
40	125.89	5798.8	263.79	5804.8	2.60461	86.8457
41	100	5829.89	292.719	5837.24	2.87441	88.4727
42	79.433	5864.52	327.019	5873.63	3.19163	90.1648
43	63.096	5903.83	365.608	5915.14	3.54365	92.0518
44	50.119	5943.67	412.134	5957.94	3.96653	94.1489
45	39.811	5996.81	461.132	6014.51	4.39718	95.8909
46	31.623	6054.26	518.669	6076.44	4.89658	97.9179
47	25.119	6120.01	576.958	6147.15	5.38559	99.755
48	19.953	6196.09	646.4	6229.72	5.95577	102.237
49	15.849	6274	719.633	6315.14	6.54327	104.304
50	12.589	6363.46	799.5	6413.48	7.16108	106.646
51	10	6454.12	888.724	6515.02	7.84025	109.378
52	7.9433	6556.31	991.263	6630.82	8.59757	111.93
53	6.3096	6660.95	1110.54	6752.89	9.46548	114.702
54	5.0119	6777	1245.9	6890.58	10.4171	117.539
55	3.9811	6900.16	1410.32	7042.82	11.5515	120.361
56	3.1623	7033.08	1604.43	7213.77	12.8507	123.258
57	2.5119	7178.03	1834.63	7408.78	14.3373	126.125
58	1.9953	7334.12	2106.5	7630.64	16.0251	129.057
59	1.5849	7518.82	2438.2	7904.26	17.9668	132.115
60	1.2589	7708.72	2831.93	8212.44	20.1717	135.397
61	1	7929.6	3305.19	8590.86	22.6272	139.234
62	0.79433	8192.38	3885.97	9067.3	25.3769	142.771
63	0.63096	8461.28	4565.38	9614.36	28.3496	146.673
64	0.50119	8766.89	5390.98	10291.8	31.5884	150.665
65	0.39811	9115.13	6388.96	11131.2	35.0273	155.737
66	0.31623	9461.93	7637.23	12159.6	38.9089	161.319
67	0.25119	9963.2	9125.35	13510.6	42.4868	167.216
68	0.19953	10397.1	10947.5	15097.9	46.4769	174.033
69	0.15849	10975.3	13160.9	17136.7	50.174	181.645
70	0.12589	11678.4	15919.9	19744.1	53.7371	190.553
71	0.1	12572.9	19181.1	22934.5	56.7557	201.29

File: Z_s17_1.4.txt
Index	Frequency (Hz)	Z' (Ω)	-Z'' (Ω)	Z (Ω)	-Phase (°)	Time (s)
1	1000000	2543.68	1836.58	3137.41	35.8299	19.9525
2	794330	2839.06	1702.76	3310.54	30.9537	21.5545
3	630960	3159.67	1603.77	3543.39	26.9112	23.3366
4	501190	3467.95	1509.31	3782.15	23.5195	25.1486
5	398110	3783.69	1389.13	4030.63	20.16	27.2406
6	316230	4024.66	1283.62	4224.4	17.6895	28.8127
7	251190	4157.97	1122.56	4306.84	15.1083	30.5947
8	199530	4351.96	1023.85	4470.77	13.2387	32.3767
9	158490	4512.34	919.61	4605.1	11.5191	34.1238
10	125890	4643.38	816.755	4714.67	9.97608	35.9258
11	100000	4751.21	719.561	4805.39	8.61189	37.8628
12	79433	4837.17	630.372	4878.08	7.42484	39.7149
13	63096	4908.29	549.108	4938.91	6.38335	41.4169
14	50119	4969.6	476.939	4992.44	5.48196	43.1989
15	39811	5018.35	413.076	5035.32	4.70559	45.141
16	31623	5053.42	357.122	5066.02	4.04233	46.918
17	25119	5087.43	312.693	5097.03	3.51719	48.76
18	19953	5113.97	274.515	5121.33	3.07266	50.5871
19	15849	5138.25	242.616	5143.97	2.70337	52.4241
20	12589	5159.34	216.035	5163.86	2.39772	54.1011
21	10000	5177.31	194.865	5180.97	2.1555	55.7282
22	7943.3	5197.09	177.665	5200.12	1.95793	57.4452
23	6309.6	5212.54	164.053	5215.12	1.80266	59.1472
24	5011.9	5229.91	153.451	5232.16	1.68063	60.8993
25	3981.1	5244.14	145.321	5246.15	1.58733	62.2613
26	3162.3	5260.01	139.514	5261.86	1.51933	63.9133
27	2511.9	5276.95	135.796	5278.7	1.47411	65.5753
28	1995.3	5292.74	133.523	5294.42	1.44513	67.4974
29	1584.9	5305.15	133.057	5306.82	1.43672	68.9844
30	1258.9	5321.92	134.198	5323.62	1.44447	70.6264
31	1000	5339.53	136.2	5341.27	1.46118	72.3285
32	794.33	5353.59	140.268	5355.43	1.50085	74.2455
33	630.96	5374.03	145.478	5376	1.55065	75.9675
34	501.19	5389.39	152.8	5391.55	1.62401	77.9296
35	398.11	5408.06	162.097	5410.49	1.71682	79.4616
36	316.23	5425.55	173.128	5428.31	1.82768	81.4486
37	251.19	5445.27	186.754	5448.47	1.96428	83.1607
38	199.53	5464.86	202.628	5468.62	2.12345	84.8377
39	158.49	5485.95	222.522	5490.46	2.32276	86.5147
40	125.89	5512.95	245.613	5518.42	2.55095	88.4418
41	100	5540.03	273.916	5546.79	2.83058	90.1888
42	79.433	5568.43	306.305	5576.85	3.14852	91.9508
43	63.096	5606.9	345.537	5617.54	3.52651	93.8479
44	50.119	5647.29	383.711	5660.31	3.88705	96.0449
45	39.811	5695.71	433.224	5712.16	4.34963	97.7369
46	31.623	5749.62	483.748	5769.93	4.8093	99.944
47	25.119	5812.31	542.149	5837.54	5.3289	101.876
48	19.953	5880.34	605.727	5911.45	5.88123	104.328
49	15.849	5954.61	675.227	5992.77	6.46946	106.665
50	12.589	6037.23	748.922	6083.5	7.07145	109.532
51	10	6125.21	834.373	6181.78	7.75705	112.239
52	7.9433	6218.54	927.305	6287.3	8.48141	115.081
53	6.3096	6316.71	1040.89	6401.9	9.35726	117.903
54	5.0119	6424.27	1171.95	6530.29	10.3386	120.53
55	3.9811	6536.14	1324.83	6669.05	11.4582	123.482
56	3.1623	6664.65	1509.96	6833.56	12.7656	126.404
57	2.5119	6798.03	1726.62	7013.87	14.2511	129.357
58	1.9953	6947.58	1986.41	7225.97	15.956	132.544
59	1.5849	7116.25	2301.78	7479.25	17.924	135.701
60	1.2589	7291.9	2668.28	7764.76	20.0988	139.043
61	1	7497.66	3118.94	8120.51	22.5867	142.695
62	0.79433	7741.71	3671.13	8568.03	25.3703	146.417
63	0.63096	7991.91	4321.96	9085.7	28.4041	150.439
64	0.50119	8254.62	5090.37	9697.97	31.6608	154.721
65	0.39811	8582.76	6085.35	10521.2	35.3374	159.453
66	0.31623	8919.74	7248.29	11493.5	39.0977	164.85
67	0.25119	9383.29	8669.29	12775.1	42.7351	170.557
68	0.19953	9830.18	10462.4	14356	46.7845	177.039
69	0.15849	10372.1	12610.5	16328.1	50.5627	184.622
70	0.12589	11090.6	15197.5	18813.9	53.8794	193.549
71	0.1	11738.7	18299.5	21741	57.3208	204.251

File: Z_s17_1.5.txt
Index	Frequency (Hz)	Z' (Ω)	-Z'' (Ω)	Z (Ω)	-Phase (°)	Time (s)
1	1000000	2582.41	1993.18	3262.15	37.6621	21.6865
2	794330	2902.69	1858.57	3446.72	32.6312	23.2385
3	630960	3261.03	1783.2	3716.74	28.6708	25.0806
4	501190	3604.04	1680.32	3976.51	24.9964	26.9126
5	398110	3974.05	1551.16	4266.05	21.3219	28.7696
6	316230	4244.81	1437.84	4481.71	18.7127	30.2567
7	251190	4399.69	1263.89	4577.63	16.0276	32.1387
8	199530	4618.63	1153.27	4760.44	14.02	33.7457
9	158490	4798.96	1036.35	4909.59	12.186	35.4778
10	125890	4942.82	920.069	5027.72	10.5445	37.0648
11	100000	5065.22	810.182	5129.61	9.08749	38.8818
12	79433	5167.27	709.955	5215.82	7.82315	40.6339
13	63096	5244.49	618.324	5280.81	6.72411	42.4209
14	50119	5313.58	536.651	5340.61	5.7671	44.1129
15	39811	5367.31	463.97	5387.33	4.94058	45.7899
16	31623	5410.74	401.259	5425.59	4.24128	47.412
17	25119	5444.12	350.541	5455.4	3.68412	49.204
18	19953	5477.33	306.92	5485.92	3.20719	50.911
19	15849	5504.1	270.789	5510.76	2.81654	52.5431
20	12589	5525.36	240.434	5530.59	2.49164	54.3401
21	10000	5549.37	216.879	5553.61	2.23808	55.9871
22	7943.3	5569.73	196.375	5573.19	2.01927	57.8342
23	6309.6	5585.77	180.272	5588.67	1.84849	59.4012
24	5011.9	5605.74	167.97	5608.25	1.7163	61.2582
25	3981.1	5623.13	158.864	5625.37	1.61828	62.8453
26	3162.3	5638.07	151.116	5640.09	1.53533	64.7223
27	2511.9	5657.05	146.255	5658.94	1.48097	66.3093
28	1995.3	5673.35	143.659	5675.17	1.45052	68.1214
29	1584.9	5687.89	142.646	5689.68	1.43662	69.6434
30	1258.9	5707.5	143.501	5709.31	1.44025	71.3754
31	1000	5722.6	145.188	5724.45	1.45333	73.0625
32	794.33	5739.77	149.098	5741.71	1.488	75.0745
33	630.96	5761.95	154.254	5764.02	1.53351	76.7165
34	501.19	5780.03	161.098	5782.28	1.59651	78.5786
35	398.11	5796.28	170.073	5798.77	1.68068	80.0506
36	316.23	5817.06	181.451	5819.89	1.78665	81.8276
37	251.19	5836.72	195.401	5839.99	1.91742	83.5646
38	199.53	5861.85	211.651	5865.67	2.06786	85.3867
39	158.49	5882.19	232.035	5886.76	2.25898	87.0537
40	125.89	5908.42	255.484	5913.94	2.47597	88.9357
41	100	5938.3	285.49	5945.16	2.75243	90.6678
42	79.433	5968.16	316.707	5976.56	3.03761	92.4898
43	63.096	6013.44	358.925	6024.14	3.41577	94.5068
44	50.119	6052.53	396.309	6065.49	3.74628	96.8089
45	39.811	6097.58	449.371	6114.12	4.21488	98.6209
46	31.623	6158.49	504.934	6179.16	4.68719	100.743
47	25.119	6219.59	563.604	6245.07	5.17786	102.725
48	19.953	6291.28	630.67	6322.81	5.7245	104.992
49	15.849	6373.13	702.74	6411.76	6.29236	107.384
50	12.589	6457.49	780.585	6504.5	6.8925	109.796
51	10	6549.48	868.792	6606.85	7.5562	112.253
52	7.9433	6646.92	967.782	6717	8.28398	115.09
53	6.3096	6753.73	1084.25	6840.21	9.12047	117.872
54	5.0119	6865.34	1218.35	6972.61	10.0632	120.444
55	3.9811	6991.26	1378.12	7125.79	11.1512	123.351
56	3.1623	7115.12	1564.59	7285.11	12.4017	126.228
57	2.5119	7261.31	1791.73	7479.1	13.8609	129.105
58	1.9953	7416.3	2055.65	7695.92	15.4923	132.153
59	1.5849	7593.86	2376.32	7956.99	17.3763	135.33
60	1.2589	7771.43	2754.21	8245.05	19.5144	138.647
61	1	7995.65	3211.14	8616.37	21.881	142.294
62	0.79433	8248.56	3762.7	9066.24	24.5208	145.811
63	0.63096	8510.29	4424.52	9591.74	27.47	149.683
64	0.50119	8800.84	5249.07	10247.3	30.8131	154.08
65	0.39811	9109.99	6202.72	11021.1	34.2498	158.632
66	0.31623	9500.67	7402.23	12043.9	37.9231	163.949
67	0.25119	9887.31	8906.91	13307.6	42.0139	169.686
68	0.19953	10435.3	10642.3	14904.9	45.5627	176.543
69	0.15849	10990.5	12799.9	16870.9	49.3492	184.221
70	0.12589	11618.9	15433.6	19318.2	53.0265	193.368
71	0.1	12295.2	18819.3	22479.7	56.8422	204.035