Folder: Streamlit_cement/data (part 3)

File: Z_s3_1.txt
Index	Frequency (Hz)	Z' (Ω)	-Z'' (Ω)	Z (Ω)	-Phase (°)	Time (s)
1	1000000	2762.01	2631.99	3815.24	43.6191	34.9348
2	794330	3098.59	2499.28	3980.91	38.8892	36.9668
3	630960	3884.22	2408.3	4570.24	31.7998	39.0088
4	501190	4385.46	2236.19	4922.68	27.0175	41.2409
5	398110	4901.29	2011.94	5298.16	22.3177	43.3729
6	316230	5231.07	1801.76	5532.67	19.0055	45.33
7	251190	5399.77	1540.33	5615.17	15.9213	47.502
8	199530	5638.91	1377.81	5804.8	13.7306	49.499
9	158490	5832.44	1222.64	5959.21	11.8393	51.8511
10	125890	5990.76	1077.93	6086.97	10.2002	53.9731
11	100000	6124.18	945.513	6196.74	8.77661	56.2002
12	79433	6232.16	825.383	6286.58	7.54431	58.3422
13	63096	6324.93	717.41	6365.49	6.47116	60.1292
14	50119	6399.29	620.804	6429.33	5.541	62.2213
15	39811	6460.91	534.032	6482.94	4.72509	64.1633
16	31623	6507.31	458.911	6523.47	4.03396	66.2253
17	25119	6548.62	398.773	6560.75	3.48468	68.2374
18	19953	6583.06	346.115	6592.16	3.00964	70.3194
19	15849	6614.75	302.223	6621.65	2.61598	72.3465
20	12589	6639.42	265.354	6644.72	2.28868	74.3335
21	10000	6664.2	235.115	6668.35	2.02058	76.8405
22	7943.3	6679.27	210.713	6682.6	1.80693	78.7426
23	6309.6	6701.38	191.017	6704.1	1.63272	81.1646
24	5011.9	6719.57	175.145	6721.85	1.49307	83.4167
25	3981.1	6736.34	162.35	6738.3	1.38059	85.3137
26	3162.3	6754.93	153.093	6756.66	1.29832	87.6257
27	2511.9	6770.19	145.787	6771.76	1.2336	89.7078
28	1995.3	6787.38	140.875	6788.84	1.18903	92.1198
29	1584.9	6800.52	137.956	6801.92	1.16215	94.5019
30	1258.9	6817.54	136.861	6818.91	1.15005	96.2339
31	1000	6831.42	138.5	6832.82	1.16145	98.4859
32	794.33	6846.38	141.291	6847.84	1.18226	100.673
33	630.96	6866.4	146.165	6867.96	1.21947	102.985
34	501.19	6881.84	152.903	6883.54	1.2728	105.597
35	398.11	6902.19	161.246	6904.08	1.33828	107.859
36	316.23	6923.12	172.698	6925.27	1.42895	110.406
37	251.19	6941.26	185.8	6943.74	1.5333	112.623
38	199.53	6965.94	200.525	6968.83	1.64889	114.89
39	158.49	6993.49	217.446	6996.87	1.7809	116.852
40	125.89	7017.17	236.316	7021.14	1.92881	119.479
41	100	7047.03	258.311	7051.77	2.09925	121.436
42	79.433	7079.34	282.599	7084.98	2.28597	123.528
43	63.096	7117.15	311.685	7123.97	2.50758	126.245
44	50.119	7150.87	342.183	7159.05	2.73963	128.482
45	39.811	7197.26	373.036	7206.92	2.967	130.615
46	31.623	7245.19	409.407	7256.75	3.23419	133.217
47	25.119	7292.82	452.951	7306.87	3.55403	135.674
48	19.953	7346.36	502.596	7363.53	3.91375	138.441
49	15.849	7407.01	556.412	7427.88	4.29597	141.318
50	12.589	7464.18	619.807	7489.87	4.74681	144.54
51	10	7536.02	697.103	7568.2	5.28498	147.582
52	7.9433	7611.94	784.411	7652.25	5.88357	150.729
53	6.3096	7689.07	884.541	7739.78	6.56239	153.916
54	5.0119	7779.5	1004.62	7844.1	7.35824	156.718
55	3.9811	7880.14	1145.44	7962.95	8.27048	159.94
56	3.1623	7988.37	1312.56	8095.49	9.33082	163.242
57	2.5119	8106.78	1507.16	8245.69	10.5318	166.604
58	1.9953	8236.78	1738.41	8418.23	11.9176	170.056
59	1.5849	8389.99	2018.65	8629.42	13.5283	173.648
60	1.2589	8551.41	2343.54	8866.73	15.3258	177.26
61	1	8736.84	2740.47	9156.56	17.415	181.207
62	0.79433	8956.17	3209.54	9513.89	19.7157	184.875
63	0.63096	9214.04	3773.76	9956.9	22.2723	188.872
64	0.50119	9474.93	4451.23	10468.4	25.1637	193.864
65	0.39811	9760.98	5274.8	11095.1	28.3866	198.761
66	0.31623	10127.6	6292.84	11923.4	31.855	203.988
67	0.25119	10480	7494.16	12883.8	35.5682	210.09
68	0.19953	11042.1	9004.95	14248.4	39.1976	216.782
69	0.15849	11580.6	10819.9	15848.7	43.0549	224.599
70	0.12589	12301.3	12951.2	17862.2	46.4743	233.961
71	0.1	12947.7	15464.4	20169.1	50.0619	244.804

File: Z_s4_1.2.txt
Index	Frequency (Hz)	Z' (Ω)	-Z'' (Ω)	Z (Ω)	-Phase (°)	Time (s)
1	1000000	2435.93	1521.92	2872.28	31.9963	20.7565
2	794330	2642.67	1391.41	2986.6	27.7676	22.6635
3	630960	2890.41	1295.55	3167.48	24.1431	25.9306
4	501190	3125.88	1197.03	3347.24	20.954	29.0077
5	398110	3366.45	1073.51	3533.47	17.6868	32.8997
6	316230	3549.21	979.304	3681.84	15.4253	34.6468
7	251190	3632.81	847.232	3730.29	13.1277	36.1138
8	199530	3777.8	765.407	3854.55	11.4535	37.5808
9	158490	3893.86	681.565	3953.06	9.92823	39.1728
10	125890	3989.14	601.418	4034.22	8.57356	40.6199
11	100000	4065.07	526.43	4099.01	7.37879	42.2469
12	79433	4127.08	458.759	4152.5	6.34286	43.7439
13	63096	4175.97	398.203	4194.92	5.44701	45.446
14	50119	4218.02	345.112	4232.11	4.67744	47.023
15	39811	4253.7	298.287	4264.15	4.01125	48.95
16	31623	4279.02	258.209	4286.8	3.45322	50.4771
17	25119	4301.39	226.502	4307.35	3.01429	52.1191
18	19953	4321.25	199.091	4325.83	2.6379	53.6861
19	15849	4341.55	176.352	4345.13	2.32605	55.4431
20	12589	4356.91	157.689	4359.76	2.07279	57.0052
21	10000	4370.02	142.129	4372.33	1.86282	58.5622
22	7943.3	4382.64	129.895	4384.57	1.69766	60.1592
23	6309.6	4398.79	119.911	4400.42	1.5615	61.7763
24	5011.9	4410.46	112.051	4411.88	1.45533	63.3733
25	3981.1	4418.64	106.148	4419.92	1.37614	64.8003
26	3162.3	4431.96	101.588	4433.12	1.31308	66.4023
27	2511.9	4441.74	98.6584	4442.83	1.27243	67.8944
28	1995.3	4454.79	97.6115	4455.86	1.25524	69.5314
29	1584.9	4465.11	97.6547	4466.18	1.25289	70.9284
30	1258.9	4475.29	98.8433	4476.38	1.26525	72.4405
31	1000	4485.68	102.138	4486.84	1.30439	74.2275
32	794.33	4500.07	106.865	4501.34	1.36037	75.8745
33	630.96	4512.3	112.781	4513.71	1.43176	77.7166
34	501.19	4525.74	120.332	4527.34	1.52305	79.4286
35	398.11	4540.07	130.178	4541.94	1.64239	81.2656
36	316.23	4553.94	141.775	4556.14	1.78318	82.6476
37	251.19	4572.54	155.29	4575.18	1.94509	84.4147
38	199.53	4590.74	170.937	4593.92	2.13243	85.9367
39	158.49	4613.65	188.714	4617.51	2.34229	87.7837
40	125.89	4636.45	207.841	4641.1	2.56672	89.4408
41	100	4662.2	229.483	4667.84	2.81794	91.5178
42	79.433	4693.34	253.22	4700.16	3.08829	93.8299
43	63.096	4726.65	279.151	4734.89	3.37991	95.6769
44	50.119	4763.44	305.943	4773.25	3.6749	98.3689
45	39.811	4807.42	337.462	4819.25	4.01535	100.346
46	31.623	4852.27	369.521	4866.32	4.35491	102.653
47	25.119	4900.48	404.008	4917.11	4.71295	105.03
48	19.953	4952.22	445.878	4972.25	5.14481	107.077
49	15.849	5005.21	489.64	5029.1	5.58724	109.754
50	12.589	5062.95	539.206	5091.58	6.0791	112.111
51	10	5122.83	598.6	5157.68	6.66476	114.998
52	7.9433	5189.98	665.824	5232.51	7.31056	117.76
53	6.3096	5260.93	744.835	5313.4	8.05829	120.997
54	5.0119	5339.35	838.321	5404.76	8.92305	124.244
55	3.9811	5421.61	947.28	5503.74	9.91085	127.881
56	3.1623	5512.12	1079.1	5616.76	11.0766	131.014
57	2.5119	5615.21	1233.45	5749.08	12.3889	135.981
58	1.9953	5725.32	1416.84	5898.03	13.8997	139.078
59	1.5849	5847.42	1634.32	6071.52	15.6154	142.35
60	1.2589	5975.9	1894.21	6268.93	17.5873	145.752
61	1	6124.13	2206.5	6509.5	19.8139	149.664
62	0.79433	6290.61	2585.72	6801.31	22.3448	153.071
63	0.63096	6485.04	3042.86	7163.43	25.1365	156.773
64	0.50119	6663.56	3588.96	7568.59	28.3067	161.135
65	0.39811	6906.09	4279.6	8124.6	31.7859	165.822
66	0.31623	7130.59	5098.59	8765.89	35.566	171.364
67	0.25119	7458.71	6095.09	9632.37	39.2549	177.466
68	0.19953	7754.96	7316.86	10661.9	43.335	184.164
69	0.15849	8162.23	8772.97	11982.8	47.0654	192.006
70	0.12589	8585.31	10593.8	13635.8	50.9783	201.623
71	0.1	9067.85	12832.7	15713.2	54.7541	213.22

File: Z_s4_1.3.txt
Index	Frequency (Hz)	Z' (Ω)	-Z'' (Ω)	Z (Ω)	-Phase (°)	Time (s)
1	1000000	2535.23	1722.54	3065.05	34.1938	22.1415
2	794330	2788.56	1586.98	3208.52	29.6443	23.7686
3	630960	3073.89	1477.89	3410.71	25.6777	25.4656
4	501190	3353.29	1383.52	3627.49	22.4204	27.1076
5	398110	3640.51	1243.59	3847.05	18.86	28.9147
6	316230	3852.83	1138.77	4017.6	16.466	30.3967
7	251190	3957.05	989.474	4078.88	14.0391	32.0887
8	199530	4126.83	895.139	4222.8	12.2383	33.7057
9	158490	4264.63	797.82	4338.62	10.5963	35.5528
10	125890	4374.8	703.321	4430.97	9.1331	37.2148
11	100000	4463.22	615.046	4505.4	7.84613	38.9668
12	79433	4534.61	535.533	4566.13	6.73537	40.6489
13	63096	4592.69	464.325	4616.1	5.77304	42.3809
14	50119	4642.07	401.593	4659.41	4.94444	44.1679
15	39811	4681.29	346.545	4694.1	4.23375	45.925
16	31623	4709.07	299.116	4718.56	3.6345	47.582
17	25119	4736.29	261.754	4743.51	3.16327	49.234
18	19953	4761.43	229.544	4766.96	2.76004	50.9011
19	15849	4782	202.561	4786.29	2.42554	52.5731
20	12589	4799.49	180.318	4802.87	2.15161	54.3051
21	10000	4813.43	161.788	4816.15	1.92509	55.9722
22	7943.3	4829.99	146.923	4832.22	1.74234	57.7692
23	6309.6	4842.71	134.94	4844.59	1.59611	59.2662
24	5011.9	4858.82	125.192	4860.43	1.47595	61.1333
25	3981.1	4870.56	117.367	4871.97	1.3804	62.6803
26	3162.3	4883.65	111.686	4884.92	1.31009	64.4123
27	2511.9	4893.32	107.266	4894.5	1.25577	66.0343
28	1995.3	4906.53	105.125	4907.65	1.2274	67.8514
29	1584.9	4917.99	103.755	4919.09	1.20859	69.3484
30	1258.9	4929.27	104.757	4930.39	1.21747	71.1904
31	1000	4941.07	106.085	4942.21	1.22995	72.7825
32	794.33	4953.56	109.851	4954.78	1.27039	74.7195
33	630.96	4966.34	114.911	4967.66	1.32547	76.2015
34	501.19	4978.78	121.811	4980.27	1.40152	78.0036
35	398.11	4994.21	131.101	4995.93	1.5037	79.6506
36	316.23	5009.99	141.605	5011.99	1.619	81.4176
37	251.19	5024.61	154.528	5026.98	1.76153	83.0197
38	199.53	5044	169.05	5046.83	1.91955	84.5267
39	158.49	5064.36	186.426	5067.79	2.10818	86.1137
40	125.89	5087.82	206.031	5091.99	2.31893	87.6107
41	100	5115.41	226.673	5120.43	2.53722	89.2278
42	79.433	5141.27	249.832	5147.34	2.78201	90.8648
43	63.096	5175.32	277.213	5182.74	3.06608	92.7118
44	50.119	5212.69	305.903	5221.66	3.35851	94.4689
45	39.811	5250.26	335.277	5260.95	3.6539	96.2659
46	31.623	5295.56	369.268	5308.42	3.98887	98.1879
47	25.119	5346.08	405.005	5361.4	4.33231	100.325
48	19.953	5395.39	446.449	5413.83	4.73025	102.467
49	15.849	5450.42	491.334	5472.53	5.15107	104.914
50	12.589	5510.6	540.775	5537.07	5.6047	107.246
51	10	5569.71	598.865	5601.82	6.13696	109.718
52	7.9433	5637.25	666.379	5676.5	6.74164	112.28
53	6.3096	5710.5	744.88	5758.88	7.43172	115.132
54	5.0119	5786.07	837.358	5846.35	8.23465	117.764
55	3.9811	5871.77	946.013	5947.49	9.15239	120.471
56	3.1623	5964.7	1073.69	6060.57	10.2044	123.413
57	2.5119	6063.72	1227.59	6186.73	11.4448	126.255
58	1.9953	6171.59	1405	6329.5	12.8251	129.343
59	1.5849	6297.11	1619.65	6502.07	14.4242	132.49
60	1.2589	6426.06	1877.48	6694.72	16.2866	135.722
61	1	6576.18	2178.04	6927.48	18.3249	139.419
62	0.79433	6753.09	2548.99	7218.15	20.6793	143.021
63	0.63096	6926.75	2995.71	7546.8	23.3877	147.118
64	0.50119	7114.36	3538.28	7945.66	26.4431	151.21
65	0.39811	7348.1	4172.85	8450.29	29.5914	155.807
66	0.31623	7615.77	4984.77	9102.08	33.206	161.039
67	0.25119	7857.71	5955.07	9859.33	37.1571	167.021
68	0.19953	8239.42	7136.67	10900.5	40.8979	173.568
69	0.15849	8645.68	8580.64	12180.9	44.7837	181.12
70	0.12589	8992.56	10335.8	13700.2	48.9754	189.993
71	0.1	9504.85	12639.2	15814.3	53.0563	200.515

File: Z_s4_1.4.txt
Index	Frequency (Hz)	Z' (Ω)	-Z'' (Ω)	Z (Ω)	-Phase (°)	Time (s)
1	1000000	2503.95	1643.8	2995.31	33.2842	26.9426
2	794330	2719.46	1491.18	3101.47	28.7375	28.5297
3	630960	3001.8	1397.02	3310.96	24.957	30.0067
4	501190	3252.22	1306.23	3504.73	21.8825	31.6837
5	398110	3519.67	1163.78	3707.09	18.2965	33.4057
6	316230	3717.77	1062.09	3866.5	15.9436	34.9728
7	251190	3811.46	912.5	3919.17	13.4637	36.3498
8	199530	3968.81	822.844	4053.21	11.713	37.8968
9	158490	4089.61	730.323	4154.31	10.1252	39.3089
10	125890	4191.6	642.206	4240.52	8.71068	40.7409
11	100000	4271.23	560.577	4307.86	7.47704	42.1579
12	79433	4336.04	487.071	4363.31	6.40922	43.5149
13	63096	4388.09	421.808	4408.31	5.49073	44.977
14	50119	4429.57	364.486	4444.54	4.70398	46.384
15	39811	4465.75	314.515	4476.81	4.0286	49.021
16	31623	4493.72	271.405	4501.91	3.45627	50.5281
17	25119	4514.01	237.353	4520.25	3.00992	52.0501
18	19953	4533.3	208.385	4538.09	2.63189	53.5171
19	15849	4553.49	184.245	4557.22	2.31706	55.7192
20	12589	4570.2	164.273	4573.15	2.05858	57.6562
21	10000	4583.96	147.473	4586.33	1.84266	59.3032
22	7943.3	4599.94	134.438	4601.91	1.67405	60.6852
23	6309.6	4610.02	123.182	4611.66	1.53061	62.2823
24	5011.9	4622.42	114.676	4623.84	1.42114	63.7593
25	3981.1	4633.48	107.819	4634.73	1.333	65.1763
26	3162.3	4645.44	102.227	4646.57	1.26064	66.5584
27	2511.9	4655.69	98.4117	4656.73	1.21093	68.0754
28	1995.3	4664.82	96.0338	4665.81	1.17937	69.4224
29	1584.9	4676.41	95.1695	4677.38	1.16586	70.7594
30	1258.9	4686.2	95.6047	4687.18	1.16875	72.2265
31	1000	4696.52	97.0748	4697.53	1.18411	73.5735
32	794.33	4707.91	100.067	4708.97	1.21764	75.2205
33	630.96	4720.51	105.152	4721.68	1.27608	76.5526
34	501.19	4733.79	110.851	4735.09	1.34145	78.2846
35	398.11	4746.1	119.039	4747.59	1.43676	80.1566
36	316.23	4760.89	128.403	4762.62	1.54492	81.7336
37	251.19	4772.72	139.45	4774.76	1.6736	83.1707
38	199.53	4788.42	152.529	4790.85	1.82447	84.6477
39	158.49	4809.32	168.14	4812.26	2.00232	86.4547
40	125.89	4827.32	184.56	4830.85	2.18949	88.3918
41	100	4850.12	204.332	4854.42	2.4124	90.1738
42	79.433	4874.62	225.308	4879.83	2.64636	92.0758
43	63.096	4905.23	249.299	4911.56	2.90944	94.0229
44	50.119	4938.97	273.193	4946.52	3.16602	96.2599
45	39.811	4974.2	301.375	4983.32	3.46718	98.0769
46	31.623	5012.08	331.576	5023.03	3.78491	100.049
47	25.119	5055.26	364.756	5068.4	4.12695	102.216
48	19.953	5101.64	402.461	5117.49	4.51064	104.518
49	15.849	5148.7	443.253	5167.74	4.92048	107.005
50	12.589	5200.36	490.029	5223.4	5.38307	110.127
51	10	5255.9	543.444	5283.92	5.90323	112.669
52	7.9433	5316.77	604.565	5351.03	6.48719	115.416
53	6.3096	5380.55	677.24	5423	7.17399	118.133
54	5.0119	5452.46	762.644	5505.54	7.96239	121.145
55	3.9811	5524.91	863.388	5591.96	8.88188	123.982
56	3.1623	5609.66	980.649	5694.73	9.91593	126.764
57	2.5119	5699.67	1119.17	5808.51	11.1091	129.832
58	1.9953	5797.27	1284.22	5937.81	12.4906	133.129
59	1.5849	5909.31	1483.75	6092.73	14.0948	136.446
60	1.2589	6032.78	1718.52	6272.77	15.9003	139.938
61	1	6164.33	2005.52	6482.37	18.0219	143.84
62	0.79433	6310.69	2345.52	6732.48	20.3888	147.537
63	0.63096	6476.28	2745.8	7034.32	22.9759	151.514
64	0.50119	6649.75	3234.63	7394.73	25.9397	155.686
65	0.39811	6846.7	3868.11	7863.81	29.4647	160.468
66	0.31623	7072.2	4594.03	8433.33	33.0073	165.89
67	0.25119	7344.11	5550.09	9205.4	37.0791	171.717
68	0.19953	7611.08	6618.06	10086	41.0079	178.339
69	0.15849	7964.84	7949.91	11253.4	44.9463	186.147
70	0.12589	8334.38	9622.12	12729.8	49.1019	195.314
71	0.1	8852.1	11737.4	14701.2	52.9772	205.886

File: Z_s4_1.5.txt
Index	Frequency (Hz)	Z' (Ω)	-Z'' (Ω)	Z (Ω)	-Phase (°)	Time (s)
1	1000000	2488.92	1789.05	3065.2	35.7088	31.6167
2	794330	2788.39	1640.64	3235.24	30.4718	33.5137
3	630960	3105.69	1547.53	3469.89	26.4866	35.4007
4	501190	3393.69	1441.51	3687.15	23.014	37.1078
5	398110	3696.92	1284.31	3913.65	19.1573	38.9048
6	316230	3917.65	1173.26	4089.57	16.672	40.5068
7	251190	4022.35	1020.41	4149.76	14.2348	42.3489
8	199530	4195.83	919.488	4295.4	12.3606	44.1409
9	158490	4334.73	816.569	4410.97	10.6683	46.0329
10	125890	4446.24	717.902	4503.83	9.17197	47.635
11	100000	4535.99	626.868	4579.1	7.86837	49.442
12	79433	4608.9	544.321	4640.93	6.73556	51.074
13	63096	4666.15	470.932	4689.86	5.76306	52.8011
14	50119	4714.07	406.791	4731.59	4.932	54.5281
15	39811	4752.15	350.39	4765.05	4.21696	56.1851
16	31623	4783.43	302.596	4792.99	3.61966	57.9672
17	25119	4812.28	264.774	4819.56	3.14927	59.6892
18	19953	4834.94	232.27	4840.52	2.75037	61.3812
19	15849	4852.51	204.395	4856.81	2.41196	63.0333
20	12589	4874.07	181.771	4877.46	2.13577	64.7053
21	10000	4885.91	161.834	4888.59	1.89709	66.3523
22	7943.3	4906.53	148.292	4908.77	1.73114	68.1444
23	6309.6	4919.26	135.909	4921.14	1.58256	69.7714
24	5011.9	4933.47	125.716	4935.08	1.4597	71.4784
25	3981.1	4948.25	117.873	4949.65	1.36459	73.0354
26	3162.3	4958.08	111.695	4959.34	1.29053	74.8525
27	2511.9	4972.23	106.954	4973.38	1.23226	76.3845
28	1995.3	4984.44	104.068	4985.53	1.19608	78.3315
29	1584.9	4995.29	102.564	4996.35	1.17624	79.8136
30	1258.9	5007.05	102.954	5008.11	1.17793	81.6806
31	1000	5019.26	104.37	5020.35	1.19123	83.3026
32	794.33	5031.7	107.16	5032.84	1.22004	85.0097
33	630.96	5041.61	111.665	5042.85	1.26882	86.5217
34	501.19	5058.35	117.709	5059.72	1.33304	88.3037
35	398.11	5072.32	126.2	5073.89	1.42523	89.8808
36	316.23	5085.95	135.778	5087.76	1.52925	91.7578
37	251.19	5103.7	148.228	5105.85	1.66359	93.5348
38	199.53	5120.47	161.612	5123.02	1.80776	95.1469
39	158.49	5138.04	177.961	5141.12	1.9837	96.8289
40	125.89	5163.11	196.153	5166.83	2.17569	98.5659
41	100	5184.16	215.721	5188.64	2.3828	100.308
42	79.433	5213.93	238.996	5219.4	2.62449	102.11
43	63.096	5247	267.554	5253.82	2.91908	103.972
44	50.119	5277.38	294.028	5285.56	3.18892	105.894
45	39.811	5318.16	321.07	5327.85	3.45488	107.666
46	31.623	5361.14	353.274	5372.77	3.77007	109.578
47	25.119	5407.08	388.293	5421	4.10747	111.49
48	19.953	5456.14	428.925	5472.97	4.49496	113.762
49	15.849	5505.6	472.936	5525.87	4.90971	116.069
50	12.589	5563.56	522.619	5588.05	5.36639	118.336
51	10	5624.7	578.226	5654.34	5.86946	121.078
52	7.9433	5688.85	644.579	5725.25	6.46437	123.465
53	6.3096	5758.26	718.498	5802.91	7.11244	126.182
54	5.0119	5834.01	808.233	5889.73	7.88744	128.884
55	3.9811	5916.25	913.723	5986.39	8.77956	131.757
56	3.1623	6003.27	1039.37	6092.58	9.82243	134.619
57	2.5119	6104.32	1186.92	6218.64	11.0033	137.351
58	1.9953	6208.85	1362.68	6356.63	12.3786	140.323
59	1.5849	6328.43	1568.31	6519.86	13.9186	143.46
60	1.2589	6459.37	1818.79	6710.55	15.7258	146.742
61	1	6595.76	2110.82	6925.29	17.7461	150.349
62	0.79433	6763.36	2469.73	7200.18	20.0603	153.861
63	0.63096	6935.39	2900.66	7517.54	22.6967	157.703
64	0.50119	7116.63	3414.28	7893.28	25.6299	161.835
65	0.39811	7351.2	4079.95	8407.5	29.0305	166.417
66	0.31623	7599.91	4875.42	9029.31	32.6806	171.549
67	0.25119	7841.85	5795.9	9751.26	36.4681	177.116
68	0.19953	8195.25	6931.95	10733.8	40.2262	183.408
69	0.15849	8552.09	8344.45	11948.6	44.2959	191.041
70	0.12589	8935.17	10087.6	13475.8	48.4668	200.023
71	0.1	9478.27	12327.2	15549.8	52.4436	210.485

File: Z_s4_1.txt
Index	Frequency (Hz)	Z' (Ω)	-Z'' (Ω)	Z (Ω)	-Phase (°)	Time (s)
1	1000000	2112.16	1624.6	2664.69	37.5662	27.0117
2	794330	2326.49	1570.99	2807.23	34.0295	29.1037
3	630960	2711.88	1441.03	3070.97	27.9851	32.6058
4	501190	2994.09	1331.3	3276.73	23.972	36.3728
5	398110	3248.62	1173.14	3453.95	19.8557	38.7899
6	316230	3434.11	1050.17	3591.1	17.0039	40.8969
7	251190	3520.57	896.734	3632.98	14.2901	43.249
8	199530	3663.66	805.44	3751.15	12.399	45.696
9	158490	3777.88	716.938	3845.3	10.7454	47.8131
10	125890	3873.44	633.903	3924.96	9.29429	52.8701
11	100000	3953.49	557.691	3992.64	8.02932	55.6322
12	79433	4018.43	487.823	4047.93	6.92164	58.7043
13	63096	4071.55	424.869	4093.66	5.95729	61.4863
14	50119	4117.01	369.151	4133.53	5.1237	64.1784
15	39811	4152.58	319.612	4164.86	4.40122	67.1004
16	31623	4181.06	276.501	4190.19	3.78357	69.6875
17	25119	4205.95	242.3	4212.92	3.2971	72.9695
18	19953	4229.36	212.977	4234.72	2.8828	76.9116
19	15849	4247.39	188.186	4251.56	2.5369	80.3187
20	12589	4261.72	168.222	4265.04	2.26045	83.3157
21	10000	4278.6	151.805	4281.29	2.032	86.4128
22	7943.3	4292.94	139.129	4295.19	1.85624	88.7698
23	6309.6	4305.49	129.098	4307.43	1.71747	91.4469
24	5011.9	4318.73	121.288	4320.43	1.60868	94.6889
25	3981.1	4331.14	115.704	4332.69	1.53026	97.831
26	3162.3	4343.79	112.225	4345.24	1.47995	100.218
27	2511.9	4354.7	110.528	4356.1	1.45393	102.48
28	1995.3	4367.1	110.41	4368.5	1.44826	105.737
29	1584.9	4379.28	111.839	4380.71	1.46291	107.819
30	1258.9	4390.49	115.768	4392.01	1.51042	110.161
31	1000	4403.72	121.084	4405.38	1.575	113.163
32	794.33	4417.25	128.735	4419.12	1.66934	115.365
33	630.96	4433.83	137.904	4435.97	1.78148	116.837
34	501.19	4450.49	149.775	4453.01	1.92749	119.059
35	398.11	4466.24	163.572	4469.24	2.09746	121.376
36	316.23	4487.4	180.316	4491.02	2.30106	123.908
37	251.19	4508.68	199.194	4513.08	2.52969	126.321
38	199.53	4534.46	220.399	4539.81	2.78268	128.393
39	158.49	4561.46	244.499	4568.01	3.06818	131.085
40	125.89	4591.96	270.288	4599.91	3.3686	134.152
41	100	4627.84	298.667	4637.46	3.69258	136.939
42	79.433	4670.56	329.325	4682.15	4.0333	139.721
43	63.096	4718.17	361.449	4732	4.38076	143.358
44	50.119	4763.89	397.798	4780.47	4.77328	147.21
45	39.811	4822.04	432.246	4841.37	5.12228	150.307
46	31.623	4878.65	470.001	4901.23	5.5028	154.459
47	25.119	4940	511.549	4966.41	5.91205	157.536
48	19.953	5006.97	558.581	5038.03	6.36564	161.443
49	15.849	5073.93	609.781	5110.44	6.8529	165.425
50	12.589	5145.98	667.688	5189.11	7.3928	168.702
51	10	5223.67	736.032	5275.27	8.02035	171.899
52	7.9433	5302.57	814.965	5364.83	8.73756	174.916
53	6.3096	5390.89	908.358	5466.88	9.56442	178.373
54	5.0119	5485.43	1019.79	5579.42	10.5316	181.386
55	3.9811	5586.24	1150.41	5703.47	11.6365	185.083
56	3.1623	5697.22	1305.94	5844.98	12.9106	189.255
57	2.5119	5820.49	1492.28	6008.74	14.38	193.362
58	1.9953	5953.97	1710.06	6194.68	16.0248	196.774
59	1.5849	6101.1	1972.57	6412.05	17.9168	199.931
60	1.2589	6264.92	2283.49	6668.1	20.0262	203.473
61	1	6446.48	2666.2	6976.08	22.4695	207.815
62	0.79433	6643.11	3121.29	7339.84	25.1666	212.162
63	0.63096	6870.65	3652.94	7781.38	27.9983	216.929
64	0.50119	7126.42	4312.72	8329.79	31.1812	222.121
65	0.39811	7400.33	5120.78	8999.29	34.6819	228.048
66	0.31623	7712.9	6077.1	9819.37	38.2351	234.696
67	0.25119	8067.57	7268.86	10859.2	42.0188	242.723
68	0.19953	8457.71	8739.11	12161.6	45.9375	250.265
69	0.15849	8977.71	10476.9	13797.2	49.4065	259.822
70	0.12589	9604.45	12697.4	15920.7	52.8957	268.944
71	0.1	10162.5	15351.8	18410.7	56.4966	282.406

File: Z_s5_1.2.txt
Index	Frequency (Hz)	Z' (Ω)	-Z'' (Ω)	Z (Ω)	-Phase (°)	Time (s)
1	1000000	3333.5	2231.36	4011.38	33.7974	28.7957
2	794330	3645.62	1984.17	4150.59	28.5578	30.5227
3	630960	4011.44	1831.24	4409.66	24.5369	32.3647
4	501190	4356.92	1702.37	4677.69	21.3419	34.1768
5	398110	4741.04	1513.81	4976.86	17.7082	35.9538
6	316230	4994.74	1377.87	5181.31	15.4223	38.0208
7	251190	5117.43	1181.84	5252.13	13.0042	39.9779
8	199530	5319.29	1064.13	5424.69	11.3128	41.4149
9	158490	5481.27	944.512	5562.05	9.77699	42.9269
10	125890	5612.22	829.133	5673.13	8.40393	44.3389
11	100000	5717.23	722.038	5762.64	7.19788	45.911
12	79433	5800.14	624.857	5833.7	6.14884	47.348
13	63096	5865.58	538.516	5890.25	5.24559	48.8
14	50119	5920.85	462.562	5938.89	4.46711	50.232
15	39811	5964.76	395.705	5977.87	3.79547	51.6741
16	31623	5997.2	338.489	6006.75	3.23041	53.1561
17	25119	6022.91	293.849	6030.07	2.79316	54.5731
18	19953	6046.85	256.328	6052.28	2.42734	56.0852
19	15849	6065.99	224.929	6070.16	2.12358	57.4772
20	12589	6086.35	199.15	6089.61	1.87409	59.2942
21	10000	6101.57	178.19	6104.17	1.67278	60.7362
22	7943.3	6116.83	161.496	6118.96	1.51237	62.1583
23	6309.6	6132.57	148.771	6134.38	1.38967	63.7253
24	5011.9	6144.94	138.618	6146.51	1.29226	65.3273
25	3981.1	6156.97	130.726	6158.36	1.21633	67.6594
26	3162.3	6172.35	125.414	6173.63	1.16401	69.2264
27	2511.9	6184.58	121.742	6185.78	1.12771	70.7484
28	1995.3	6198.4	120.159	6199.57	1.11057	72.1055
29	1584.9	6211.29	120.489	6212.46	1.11131	73.4925
30	1258.9	6222.16	123.665	6223.39	1.1386	74.8895
31	1000	6236.83	127.783	6238.14	1.17373	76.9115
32	794.33	6252.27	134.519	6253.72	1.23254	78.4136
33	630.96	6266.37	144.092	6268.02	1.31725	79.9606
34	501.19	6277.89	155.661	6279.82	1.42037	81.4026
35	398.11	6297.44	169.794	6299.73	1.54446	82.9697
36	316.23	6320.02	186.494	6322.77	1.69021	84.4967
37	251.19	6341.82	207.191	6345.21	1.87122	86.3887
38	199.53	6364.81	229.462	6368.95	2.06471	88.0007
39	158.49	6393.53	254.868	6398.6	2.2828	89.9228
40	125.89	6429	281.914	6435.18	2.51083	91.7248
41	100	6465.97	310.739	6473.43	2.75139	93.6069
42	79.433	6508.62	343.272	6517.67	3.01905	95.3939
43	63.096	6558.02	373.703	6568.66	3.26142	97.4259
44	50.119	6604.74	407.764	6617.31	3.53285	99.318
45	39.811	6665.12	447.782	6680.15	3.84352	101.19
46	31.623	6720.77	487.201	6738.4	4.14622	102.957
47	25.119	6784.83	529.667	6805.48	4.46382	104.979
48	19.953	6849.14	580.478	6873.69	4.84435	107.016
49	15.849	6923.38	635.306	6952.47	5.24292	109.858
50	12.589	6999.27	698.535	7034.04	5.69932	112.31
51	10	7075.87	768.015	7117.43	6.19464	114.822
52	7.9433	7161.22	851.557	7211.67	6.78133	117.319
53	6.3096	7252.09	948.017	7313.79	7.44766	120.221
54	5.0119	7338.5	1066.09	7415.53	8.2657	123.088
55	3.9811	7438.54	1205.98	7535.66	9.20902	125.825
56	3.1623	7542.58	1372.3	7666.41	10.3116	128.542
57	2.5119	7654.41	1576.57	7815.09	11.6384	131.505
58	1.9953	7770.06	1825.41	7981.61	13.2207	134.732
59	1.5849	7898.58	2127.26	8180.02	15.0733	137.694
60	1.2589	8034.93	2494.68	8413.3	17.2485	140.976
61	1	8197.61	2954.28	8713.7	19.8183	144.733
62	0.79433	8386.03	3507.05	9089.83	22.6947	148.47
63	0.63096	8589.13	4191.93	9557.48	26.0147	152.567
64	0.50119	8807.6	5033.91	10144.7	29.7498	156.744
65	0.39811	9068.69	6032.41	10891.8	33.6315	161.336
66	0.31623	9378.28	7290.76	11878.9	37.8618	166.433
67	0.25119	9736.41	8859.91	13164.2	42.3015	172.49
68	0.19953	10249.8	10701.4	14818.2	46.2346	179.257
69	0.15849	10801.4	13002.1	16903.4	50.282	187.17
70	0.12589	11431.4	15765.4	19473.7	54.0542	196.202
71	0.1	12145.4	19296.5	22800.6	57.8134	206.709