Folder: Streamlit_cement/data

Note: README.md
# Software KDssZ version 1.0

This software tool works to analyze impedance measurements through a lumped circuital model.

The user can upload the impedance measurements in format .txt

File: Z_s1_1.2.txt
Index	Frequency (Hz)	Z' (Ω)	-Z'' (Ω)	Z (Ω)	-Phase (°)	Time (s)
1	1000000	2367.31	1471.39	2787.32	31.8628	22.1855
2	794330	2570.16	1337.98	2897.57	27.5007	23.8376
3	630960	2801.01	1252.31	3068.21	24.089	25.7696
4	501190	3028.59	1162.53	3244.05	20.9993	27.4716
5	398110	3254.54	1040.41	3416.79	17.7281	29.4287
6	316230	3429.67	949.872	3558.77	15.4805	31.0657
7	251190	3513.65	818.599	3607.75	13.1146	32.9327
8	199530	3654.27	739.815	3728.41	11.445	34.5798
9	158490	3766.94	659.321	3824.21	9.92781	36.5368
10	125890	3859.56	581.879	3903.17	8.57352	38.1088
11	100000	3932.18	509.262	3965.02	7.37938	40.0659
12	79433	3991.97	443.655	4016.55	6.34165	41.7779
13	63096	4038.99	385.352	4057.33	5.44997	43.8399
14	50119	4078.94	334.208	4092.61	4.68407	45.657
15	39811	4111.21	289.492	4121.39	4.02785	47.509
16	31623	4134.83	251.224	4142.46	3.4769	49.396
17	25119	4159.03	221.168	4164.91	3.04399	51.4081
18	19953	4177.28	195.611	4181.86	2.68105	53.2301
19	15849	4196.23	175.067	4199.88	2.389	55.2072
20	12589	4208.06	158.103	4211.03	2.15168	56.8892
21	10000	4222.74	145.101	4225.24	1.96801	58.7912
22	7943.3	4236.42	135.237	4238.58	1.8284	60.4732
23	6309.6	4249.36	128.06	4251.29	1.72616	62.3053
24	5011.9	4262.92	123.111	4264.7	1.65421	63.9123
25	3981.1	4274.18	120.368	4275.88	1.61311	65.6693
26	3162.3	4287.29	119.512	4288.95	1.59676	67.3464
27	2511.9	4301.35	120.579	4303.04	1.60574	69.2884
28	1995.3	4313.83	123.378	4315.6	1.63824	70.9354
29	1584.9	4329.02	128.177	4330.92	1.69596	72.5275
30	1258.9	4341.06	134.603	4343.15	1.77599	74.2595
31	1000	4358.11	143.452	4360.47	1.88527	75.9065
32	794.33	4374.58	153.786	4377.28	2.01337	77.9486
33	630.96	4391.69	167.444	4394.88	2.18348	79.4756
34	501.19	4412.55	183.123	4416.35	2.37645	81.3126
35	398.11	4436.5	201.894	4441.09	2.60558	82.8447
36	316.23	4458.87	222.62	4464.42	2.85826	84.5967
37	251.19	4487.67	247.683	4494.5	3.15905	86.1237
38	199.53	4516.33	275.408	4524.72	3.48961	87.8958
39	158.49	4550.38	306.246	4560.68	3.85026	89.7228
40	125.89	4591.84	341.17	4604.49	4.24922	91.7598
41	100	4635.24	378.715	4650.69	4.67088	93.6469
42	79.433	4684.32	417.354	4702.88	5.09137	95.5189
43	63.096	4734.64	455.871	4756.54	5.49973	97.4759
44	50.119	4803.21	497.732	4828.93	5.91616	99.863
45	39.811	4872.48	556.894	4904.2	6.52025	101.75
46	31.623	4945.55	609.183	4982.93	7.02221	104.227
47	25.119	5026.73	664.266	5070.43	7.52785	106.259
48	19.953	5120.37	729.547	5172.08	8.10889	108.846
49	15.849	5211.86	798.098	5272.61	8.70614	110.988
50	12.589	5313.88	873.649	5385.22	9.3364	114.09
51	10	5422.23	954.612	5505.62	9.9849	116.447
52	7.9433	5537.03	1043.6	5634.52	10.6737	118.814
53	6.3096	5654.93	1155.79	5771.84	11.5513	121.316
54	5.0119	5783.19	1279.97	5923.14	12.4799	123.873
55	3.9811	5920.52	1426.56	6089.96	13.5473	126.64
56	3.1623	6061.08	1596.32	6267.77	14.7551	129.788
57	2.5119	6218.78	1802.47	6474.73	16.1639	132.56
58	1.9953	6379.15	2045.22	6698.99	17.7764	135.522
59	1.5849	6557.54	2339.85	6962.48	19.6373	138.509
60	1.2589	6750.43	2691.43	7267.19	21.7374	141.451
61	1	6954.7	3121.04	7622.91	24.169	145.073
62	0.79433	7188.12	3644.93	8059.44	26.8885	149.065
63	0.63096	7435.77	4275.3	8577.23	29.8973	152.882
64	0.50119	7701.3	5044.88	9206.57	33.2275	157.014
65	0.39811	8019.17	5975.15	10000.5	36.6901	161.366
66	0.31623	8396.02	7159.68	11034.2	40.4558	167.128
67	0.25119	8807.94	8546.68	12273	44.1375	172.735
68	0.19953	9350.18	10280.9	13896.9	47.7144	179.237
69	0.15849	9938	12351.5	15853.2	51.18	186.665
70	0.12589	10591.7	14880.4	18265.1	54.5572	195.872
71	0.1	11325.9	18074.1	21329.6	57.9272	206.584

File: Z_s1_1.3.txt
Index	Frequency (Hz)	Z' (Ω)	-Z'' (Ω)	Z (Ω)	-Phase (°)	Time (s)
1	1000000	2421.55	1523.2	2860.78	32.1706	22.3805
2	794330	2624.74	1387.13	2968.73	27.8557	24.1526
3	630960	2878.99	1295.59	3157.08	24.2285	25.9746
4	501190	3105.67	1209.49	3332.87	21.2783	27.9766
5	398110	3342.69	1076.49	3511.76	17.8508	30.1787
6	316230	3523.9	982.495	3658.3	15.579	31.8757
7	251190	3611.99	846.24	3709.8	13.1858	33.7028
8	199530	3756.96	764.375	3833.93	11.5002	35.4448
9	158490	3872.99	680.403	3932.3	9.96401	37.2618
10	125890	3967.4	599.628	4012.45	8.59457	39.0038
11	100000	4042.56	524.533	4076.45	7.39298	40.9059
12	79433	4106.01	457.478	4131.42	6.35748	42.7929
13	63096	4154.59	396.917	4173.51	5.4573	44.695
14	50119	4192.67	343.861	4206.75	4.68861	46.582
15	39811	4228	297.89	4238.48	4.0302	48.539
16	31623	4252	258.144	4259.83	3.47424	50.2961
17	25119	4275.43	227.022	4281.45	3.03951	52.1731
18	19953	4294.03	200.56	4298.71	2.67415	54.0951
19	15849	4309.12	178.838	4312.83	2.37654	56.0222
20	12589	4325.72	161.354	4328.73	2.1362	57.8342
21	10000	4339.17	147.056	4341.66	1.94103	59.7762
22	7943.3	4353.78	136.849	4355.93	1.80034	61.4883
23	6309.6	4366.43	128.779	4368.33	1.68934	63.5403
24	5011.9	4379.74	123.163	4381.47	1.6108	65.4173
25	3981.1	4391.14	119.802	4392.77	1.5628	67.2694
26	3162.3	4405.25	118.472	4406.85	1.5405	68.9314
27	2511.9	4416.14	118.458	4417.73	1.53652	70.8534
28	1995.3	4430.9	120.951	4432.55	1.56362	72.6305
29	1584.9	4444.18	124.663	4445.93	1.60678	74.5875
30	1258.9	4457.71	130.308	4459.61	1.6744	76.2645
31	1000	4472.53	138.192	4474.67	1.76976	78.3516
32	794.33	4486.12	147.821	4488.55	1.88725	80.3386
33	630.96	4506.69	160.418	4509.55	2.03861	82.1807
34	501.19	4525.48	174.964	4528.86	2.21406	84.0827
35	398.11	4544.05	192.211	4548.11	2.42215	85.8397
36	316.23	4569.35	213.15	4574.32	2.67078	87.5668
37	251.19	4591.75	236.412	4597.83	2.94734	89.4938
38	199.53	4622.74	263.303	4630.24	3.25994	91.3158
39	158.49	4653.13	292.771	4662.33	3.60025	93.0078
40	125.89	4689.66	325.395	4700.94	3.96914	95.0249
41	100	4732.42	362.522	4746.29	4.38053	96.7119
42	79.433	4779.84	401.053	4796.63	4.79618	98.484
43	63.096	4834.21	441.994	4854.38	5.22405	100.506
44	50.119	4891.38	488.044	4915.66	5.69791	102.718
45	39.811	4960.16	539.184	4989.38	6.20386	104.895
46	31.623	5033.68	591.67	5068.34	6.70391	106.812
47	25.119	5112.94	648.418	5153.89	7.22761	109.894
48	19.953	5198.66	712.239	5247.22	7.80121	112.461
49	15.849	5293.2	779.845	5350.34	8.38107	114.993
50	12.589	5390.31	853.206	5457.42	8.99445	117.61
51	10	5494.74	933.926	5573.54	9.64622	120.582
52	7.9433	5605.71	1025.07	5698.66	10.3628	123.314
53	6.3096	5729.27	1132.76	5840.18	11.1839	126.111
54	5.0119	5850.42	1253.75	5983.25	12.0956	128.774
55	3.9811	5987.7	1397.05	6148.52	13.1333	131.246
56	3.1623	6128.82	1565.13	6325.51	14.3256	133.908
57	2.5119	6282.31	1763.76	6525.2	15.6821	136.625
58	1.9953	6440.52	2000.47	6744.05	17.2551	140.172
59	1.5849	6616.67	2284.4	6999.92	19.0472	143.724
60	1.2589	6794.69	2624.91	7284.09	21.1224	146.921
61	1	7001.69	3044.23	7634.86	23.4987	150.333
62	0.79433	7243.43	3546.35	8064.98	26.0861	153.565
63	0.63096	7472.78	4162.3	8553.78	29.1176	157.112
64	0.50119	7754.27	4906.47	9176.17	32.3234	161.609
65	0.39811	8031.96	5850.55	9936.87	36.0699	166.091
66	0.31623	8367.49	6976.43	10894.3	39.8198	171.298
67	0.25119	8823.71	8347.59	12146.6	43.4117	177.045
68	0.19953	9240.15	10032.1	13639	47.3531	184.108
69	0.15849	9791.02	12084.2	15552.9	50.9845	191.62
70	0.12589	10503.2	14631.5	18011	54.3272	200.432
71	0.1	11336.3	17588.2	20925	57.1965	211.099

File: Z_s1_1.4.txt
Index	Frequency (Hz)	Z' (Ω)	-Z'' (Ω)	Z (Ω)	-Phase (°)	Time (s)
1	1000000	2493.11	1660.75	2995.61	33.6691	83.7687
2	794330	2738.57	1520.58	3132.4	29.0411	85.8657
3	630960	3017.08	1428.21	3338.05	25.3317	87.6577
4	501190	3278.16	1323.66	3535.31	21.9879	89.4848
5	398110	3557.4	1181.23	3748.39	18.3686	91.4168
6	316230	3757.92	1082.24	3910.65	16.0659	93.1238
7	251190	3854.79	944.551	3968.82	13.7681	95.0009
8	199530	4016.32	854.228	4106.16	12.0073	96.7279
9	158490	4146.03	761.301	4215.35	10.4048	98.5949
10	125890	4252.34	671.497	4305.04	8.97361	100.342
11	100000	4337.23	587.842	4376.89	7.71848	102.324
12	79433	4407.83	512.502	4437.52	6.63205	105.381
13	63096	4463.43	444.606	4485.52	5.68853	109.368
14	50119	4509.27	385.103	4525.68	4.88137	111.485
15	39811	4545.73	332.66	4557.89	4.18548	113.812
16	31623	4575.5	288.711	4584.6	3.61054	116.024
17	25119	4601.37	253.372	4608.34	3.15178	117.751
18	19953	4624.28	223.323	4629.67	2.76487	120.113
19	15849	4642.08	198.195	4646.31	2.44477	121.735
20	12589	4660.93	177.886	4664.32	2.18566	123.622
21	10000	4676.71	162.197	4679.52	1.98632	125.374
22	7943.3	4692.71	149.354	4695.08	1.82293	127.166
23	6309.6	4708.36	140.012	4710.44	1.7033	128.764
24	5011.9	4720.58	132.797	4722.44	1.6114	130.396
25	3981.1	4735.44	128.064	4737.17	1.54911	132.078
26	3162.3	4748.7	125.561	4750.36	1.51461	133.67
27	2511.9	4761.07	124.587	4762.7	1.49897	135.457
28	1995.3	4775.16	126.005	4776.82	1.51154	136.884
29	1584.9	4789.48	128.842	4791.21	1.54095	138.586
30	1258.9	4805.38	133.292	4807.22	1.58887	140.188
31	1000	4820.77	141.429	4822.84	1.68044	141.92
32	794.33	4836.21	150.511	4838.55	1.78257	143.557
33	630.96	4853.2	162.049	4855.9	1.9124	145.349
34	501.19	4873.48	176.577	4876.68	2.07504	147.056
35	398.11	4893.21	193.019	4897.01	2.25894	148.683
36	316.23	4916.12	213.931	4920.77	2.49172	150.42
37	251.19	4944.28	237.126	4949.96	2.74579	152.157
38	199.53	4970.7	263.582	4977.68	3.0354	153.904
39	158.49	5002.41	294.448	5011.07	3.36862	155.901
40	125.89	5039.07	327.862	5049.72	3.72265	158.163
41	100	5083.93	365.278	5097.04	4.10961	159.755
42	79.433	5128.49	405.421	5144.49	4.51999	161.492
43	63.096	5182.56	448.234	5201.9	4.94315	163.154
44	50.119	5242.2	500.731	5266.06	5.45629	165.101
45	39.811	5312.34	550.677	5340.81	5.91814	166.743
46	31.623	5383.1	605.844	5417.09	6.42137	168.645
47	25.119	5470.7	665.179	5510.99	6.93253	170.342
48	19.953	5558.23	731.19	5606.12	7.49428	172.504
49	15.849	5651.66	800.784	5708.11	8.06457	174.891
50	12.589	5753.46	877.47	5819.99	8.67145	177.268
51	10	5864.86	961.626	5943.17	9.31159	179.81
52	7.9433	5979.34	1059.65	6072.51	10.0495	182.668
53	6.3096	6105.09	1166.31	6215.5	10.8154	185.3
54	5.0119	6235.75	1291.98	6368.19	11.7054	188.087
55	3.9811	6377.8	1439.11	6538.14	12.7155	190.909
56	3.1623	6523.64	1609.06	6719.15	13.8555	193.911
57	2.5119	6686.7	1812.85	6928.08	15.169	196.788
58	1.9953	6854.52	2046.33	7153.46	16.6223	199.72
59	1.5849	7038.08	2340.08	7416.91	18.3913	202.737
60	1.2589	7224.03	2683.72	7706.43	20.3799	206.084
61	1	7445.83	3099.1	8065.04	22.598	209.751
62	0.79433	7680.02	3614.2	8487.94	25.2016	213.488
63	0.63096	7930.7	4226.16	8986.46	28.0525	217.26
64	0.50119	8211.54	4985.99	9606.75	31.2658	221.397
65	0.39811	8495.68	5886.41	10335.7	34.717	225.914
66	0.31623	8841.77	7031.66	11297	38.4944	230.921
67	0.25119	9266.07	8468.44	12552.9	42.4248	236.769
68	0.19953	9748.43	10091.8	14031.3	45.9915	243.886
69	0.15849	10348.3	12204.9	16001.4	49.7059	252.168
70	0.12589	11000	14674.8	18339.8	53.1455	261.12
71	0.1	11668.6	17777.7	21265.1	56.7206	271.817

File: Z_s1_1.5.txt
Index	Frequency (Hz)	Z' (Ω)	-Z'' (Ω)	Z (Ω)	-Phase (°)	Time (s)
1	1000000	2507.47	1727.82	3045.12	34.5696	15.5874
2	794330	2788.74	1585.39	3207.88	29.6181	17.3144
3	630960	3059.23	1488.72	3402.23	25.949	19.0515
4	501190	3339.62	1388.67	3616.83	22.5783	20.9335
5	398110	3619.07	1251.63	3829.39	19.0776	22.8955
6	316230	3829.09	1141.2	3995.53	16.5959	24.7326
7	251190	3936.52	986.334	4058.21	14.0664	26.3996
8	199530	4103.31	890.674	4198.87	12.2468	28.1666
9	158490	4238.43	792.606	4311.9	10.5922	29.8987
10	125890	4344.89	697.598	4400.53	9.12133	31.4707
11	100000	4435.65	610.183	4477.43	7.83264	33.3527
12	79433	4504.35	531.288	4535.58	6.72694	34.9748
13	63096	4560.47	460.562	4583.67	5.76676	36.7668
14	50119	4607.97	398.693	4625.19	4.94506	38.3388
15	39811	4647.71	344.512	4660.46	4.2393	40.1909
16	31623	4674.65	298.157	4684.15	3.64948	41.8029
17	25119	4700.7	261.134	4707.95	3.17963	43.6099
18	19953	4723.6	229.855	4729.19	2.78588	45.272
19	15849	4741.74	203.996	4746.12	2.46342	47.169
20	12589	4761.48	182.974	4765	2.20068	48.796
21	10000	4774.34	166.539	4777.24	1.99779	50.6731
22	7943.3	4789.5	152.701	4791.93	1.82611	52.4301
23	6309.6	4806.8	142.568	4808.92	1.69888	54.1221
24	5011.9	4817.57	134.781	4819.46	1.60254	55.7842
25	3981.1	4830.53	129.356	4832.26	1.53395	57.6062
26	3162.3	4842.38	126.501	4844.04	1.49644	59.4232
27	2511.9	4859.25	124.996	4860.86	1.47352	61.6503
28	1995.3	4870.43	125.711	4872.05	1.47854	63.0823
29	1584.9	4884.27	128.643	4885.96	1.50873	64.5043
30	1258.9	4899.51	132.875	4901.31	1.55348	65.7663
31	1000	4913.35	139.822	4915.34	1.63006	67.2784
32	794.33	4928.59	148.476	4930.83	1.72554	69.3354
33	630.96	4945.96	159.525	4948.53	1.84735	70.7074
34	501.19	4963.34	173.825	4966.38	2.00578	72.1445
35	398.11	4982.4	190.14	4986.03	2.18548	73.5365
36	316.23	5004.5	209.408	5008.88	2.39608	75.1085
37	251.19	5027.91	232.641	5033.29	2.64917	76.5805
38	199.53	5057.54	258.656	5064.15	2.92771	79.0976
39	158.49	5085.61	287.942	5093.75	3.24057	80.5846
40	125.89	5119.98	320.576	5130.01	3.58277	81.9716
41	100	5159.68	357.445	5172.05	3.96292	83.2787
42	79.433	5206.03	398.638	5221.27	4.37873	84.9857
43	63.096	5265.6	442.218	5284.14	4.80057	86.4727
44	50.119	5319.14	494.731	5342.1	5.31377	88.2798
45	39.811	5384.19	542.964	5411.5	5.75847	89.8618
46	31.623	5452.77	596.532	5485.3	6.24332	91.4938
47	25.119	5535.36	657.493	5574.27	6.77389	93.0758
48	19.953	5623.44	723.825	5669.84	7.33454	95.2129
49	15.849	5716.58	791.903	5771.17	7.88684	98.995
50	12.589	5817.35	870.752	5882.15	8.51295	101.762
51	10	5925.19	954.806	6001.63	9.15415	104.254
52	7.9433	6039.9	1051.57	6130.75	9.8764	107.021
53	6.3096	6160.93	1159.64	6269.11	10.6597	109.813
54	5.0119	6290.49	1283.09	6420.01	11.5286	112.42
55	3.9811	6425.45	1427.51	6582.11	12.5257	115.187
56	3.1623	6575.69	1597.56	6766.97	13.6555	117.889
57	2.5119	6734.13	1800	6970.55	14.965	120.676
58	1.9953	6899.73	2036.63	7194.03	16.4453	123.753
59	1.5849	7078.22	2319.6	7448.6	18.1445	127.03
60	1.2589	7275.07	2664.13	7747.53	20.1127	130.483
61	1	7478.05	3074.75	8085.5	22.351	134.19
62	0.79433	7723.38	3577.9	8511.87	24.8562	137.797
63	0.63096	7971.02	4189.43	9004.91	27.7256	141.794
64	0.50119	8239.03	4937.83	9605.4	30.9352	145.831
65	0.39811	8520.37	5837.87	10328.5	34.4176	150.443
66	0.31623	8867.78	6956.79	11271	38.1143	155.61
67	0.25119	9249.51	8364.69	12470.8	42.1243	161.662
68	0.19953	9755.7	9991.27	13964.2	45.6835	168.429
69	0.15849	10324.3	12024	15848.3	49.3493	176.051
70	0.12589	10874.4	14523.5	18143.4	53.1761	184.879
71	0.1	11719.1	17682.9	21213.7	56.466	195.411

File: Z_s1_1.txt
Index	Frequency (Hz)	Z' (Ω)	-Z'' (Ω)	Z (Ω)	-Phase (°)	Time (s)
1	1000000	1895.15	1244.13	2267.03	33.2842	93.8488
2	794330	2098.48	1155.33	2395.5	28.8352	96.6359
3	630960	2318.32	1063.91	2550.78	24.651	100.083
4	501190	2510.28	961.037	2687.96	20.9488	102.63
5	398110	2682.88	826.595	2807.33	17.1241	105.127
6	316230	2810.65	733.761	2904.85	14.6313	106.839
7	251190	2858.06	620.441	2924.62	12.248	109.111
8	199530	2955.57	552.836	3006.82	10.5947	111.538
9	158490	3035.54	488.373	3074.58	9.13971	113.815
10	125890	3099.38	428.204	3128.82	7.86607	116.022
11	100000	3152.31	373.784	3174.4	6.76225	117.914
12	79433	3195.36	325.318	3211.87	5.81324	120.701
13	63096	3229.92	282.531	3242.25	4.99911	122.803
14	50119	3259.18	245.507	3268.41	4.30784	125.48
15	39811	3283.7	213.374	3290.63	3.71784	127.222
16	31623	3301.43	186.777	3306.71	3.23804	129.629
17	25119	3320.52	166.169	3324.68	2.86486	132.507
18	19953	3335.22	149.218	3338.56	2.56171	134.484
19	15849	3349.21	135.863	3351.96	2.32297	137.141
20	12589	3362.83	125.821	3365.18	2.14274	139.968
21	10000	3376.44	118.741	3378.53	2.01411	142.32
22	7943.3	3387.18	114.148	3389.11	1.93014	144.752
23	6309.6	3400.86	111.964	3402.7	1.88563	146.634
24	5011.9	3413.83	111.872	3415.66	1.87693	148.706
25	3981.1	3428.61	113.657	3430.49	1.89864	151.283
26	3162.3	3442.45	117.132	3444.44	1.94878	154
27	2511.9	3456.64	122.495	3458.81	2.02958	156.247
28	1995.3	3473.17	129.789	3475.59	2.1401	158.134
29	1584.9	3489.64	138.638	3492.39	2.27508	160.086
30	1258.9	3506.75	149.093	3509.92	2.43452	162.523
31	1000	3527.73	162.276	3531.46	2.63376	165.32
32	794.33	3549.12	177.318	3553.55	2.86018	167.142
33	630.96	3572.98	194.858	3578.29	3.12161	168.634
34	501.19	3598.39	215.014	3604.81	3.41952	170.861
35	398.11	3627.81	237.714	3635.59	3.74898	173.223
36	316.23	3660.57	263.027	3670	4.10987	175.895
37	251.19	3695.48	290.324	3706.86	4.49204	178.612
38	199.53	3736.95	320.95	3750.7	4.90883	180.274
39	158.49	3779.73	353.56	3796.23	5.34397	182.016
40	125.89	3830.41	388.315	3850.04	5.78869	183.803
41	100	3884.05	425.696	3907.31	6.25471	186.221
42	79.433	3946.29	465.194	3973.61	6.72309	188.408
43	63.096	4010.62	508.979	4042.78	7.23262	190.66
44	50.119	4083.71	550.378	4120.63	7.67574	192.767
45	39.811	4158.8	600.004	4201.86	8.2096	195.059
46	31.623	4239.94	651.254	4289.66	8.73237	197.731
47	25.119	4330.15	706.487	4387.4	9.26646	200.843
48	19.953	4423.32	768.633	4489.61	9.85775	203.07
49	15.849	4524.53	836.424	4601.19	10.4737	206.057
50	12.589	4633.4	913.411	4722.57	11.1521	209.334
51	10	4742.6	998.319	4846.54	11.8872	212.566
52	7.9433	4864.28	1098.2	4986.71	12.7223	216.568
53	6.3096	4989.58	1212.77	5134.85	13.6614	219.67
54	5.0119	5122.58	1347.66	5296.89	14.7395	223.827
55	3.9811	5263.86	1505.18	5474.83	15.9577	227.254
56	3.1623	5415.05	1693.08	5673.56	17.3625	231.051
57	2.5119	5577.21	1918.88	5898.08	18.9861	235.073
58	1.9953	5751.8	2188.47	6154.07	20.8311	238.601
59	1.5849	5944.1	2515.27	6454.37	22.9358	242.428
60	1.2589	6149.86	2905.3	6801.58	25.2869	246.495
61	1	6380.13	3384.58	7222.29	27.9454	250.322
62	0.79433	6643.73	3957.88	7733.3	30.7836	254.994
63	0.63096	6933.75	4653.83	8350.75	33.8689	260.096
64	0.50119	7260.52	5502.4	9109.97	37.1567	264.928
65	0.39811	7642.05	6533.22	10054	40.5273	270.81
66	0.31623	8083.95	7759.86	11205.6	43.8282	276.872
67	0.25119	8575.58	9295.57	12647.1	47.3071	284.204
68	0.19953	9234.5	11105	14442.9	50.2544	291.091
69	0.15849	9964.3	13358.6	16665.5	53.2805	299.259
70	0.12589	10829.8	16106.1	19408.5	56.0828	309.161
71	0.1	11873.8	19319.7	22676.8	58.4252	320.783

File: Z_s2_1.2.txt
Index	Frequency (Hz)	Z' (Ω)	-Z'' (Ω)	Z (Ω)	-Phase (°)	Time (s)
1	1000000	3327.95	2737.31	4309.07	39.4381	63.0573
2	794330	3807.72	2447.27	4526.35	32.7294	64.9393
3	630960	4287.16	2382.54	4904.72	29.0626	66.9964
4	501190	4769.39	2255.42	5275.8	25.3092	68.8134
5	398110	5299.3	2103.08	5701.36	21.6462	70.6504
6	316230	5669.3	1955.39	5997.04	19.0297	72.2975
7	251190	5885.03	1723.46	6132.2	16.3229	74.1245
8	199530	6189	1578.64	6387.16	14.3094	75.8365
9	158490	6439.54	1423.72	6595.05	12.467	77.7336
10	125890	6643.1	1267.58	6762.95	10.8029	79.4106
11	100000	6809.7	1118.29	6900.92	9.32586	81.4476
12	79433	6953.07	981.078	7021.94	8.03142	82.9597
13	63096	7065.44	854.113	7116.88	6.89281	85.0217
14	50119	7159.76	740.711	7197.97	5.90651	86.6287
15	39811	7237.32	638.429	7265.43	5.04121	88.4108
16	31623	7297.74	548.761	7318.35	4.30032	90.0428
17	25119	7342.78	477.922	7358.31	3.72398	91.7448
18	19953	7385.97	416.006	7397.68	3.22371	93.6069
19	15849	7423.45	363.495	7432.34	2.8033	95.7039
20	12589	7455.57	319.668	7462.42	2.45513	97.4509
21	10000	7479.97	283.236	7485.33	2.16852	99.623
22	7943.3	7511.18	253.627	7515.46	1.93395	101.425
23	6309.6	7532.68	228.887	7536.15	1.74045	103.452
24	5011.9	7553.51	209.337	7556.41	1.58748	105.099
25	3981.1	7577.11	193.158	7579.57	1.46028	107.146
26	3162.3	7595.34	179.693	7597.47	1.35527	108.898
27	2511.9	7613.14	169.614	7615.03	1.27629	110.985
28	1995.3	7634.73	161.431	7636.43	1.2113	112.987
29	1584.9	7648.75	156.856	7650.36	1.17483	114.764
30	1258.9	7666.51	153.772	7668.05	1.14907	116.741
31	1000	7685.66	152.832	7687.18	1.13919	118.373
32	794.33	7703.05	154.313	7704.6	1.14763	119.985
33	630.96	7724.98	158.172	7726.6	1.17299	121.697
34	501.19	7738.81	164.123	7740.55	1.21494	123.299
35	398.11	7761.32	171.94	7763.23	1.26909	125.146
36	316.23	7781.07	181.504	7783.18	1.33626	126.953
37	251.19	7802.45	196.422	7804.92	1.44208	128.916
38	199.53	7825.46	212.114	7828.34	1.55266	130.473
39	158.49	7851.58	229.803	7854.94	1.67648	132.265
40	125.89	7877.16	251.858	7881.19	1.8313	134.037
41	100	7907.94	268.796	7912.5	1.94677	135.919
42	79.433	7946.38	302.314	7952.13	2.17872	137.716
43	63.096	7972.47	307.929	7978.41	2.2119	139.513
44	50.119	8020.5	385.796	8029.77	2.75388	141.49
45	39.811	8072.67	400.054	8082.57	2.83706	143.582
46	31.623	8142.21	439.154	8154.04	3.08729	145.749
47	25.119	8171.82	486.045	8186.27	3.40384	148.361
48	19.953	8241.27	535.905	8258.68	3.72054	150.898
49	15.849	8303.5	595.278	8324.81	4.10052	153.11
50	12.589	8382.28	651.636	8407.58	4.44521	155.517
51	10	8447.76	731.436	8479.37	4.94853	158.414
52	7.9433	8521.18	820.327	8560.57	5.49887	161.416
53	6.3096	8624.86	923.366	8674.15	6.11073	164.028
54	5.0119	8717.91	1033.13	8778.91	6.75839	166.97
55	3.9811	8825.87	1164.86	8902.41	7.51858	170.017
56	3.1623	8945.91	1325.45	9043.57	8.42777	173.134
57	2.5119	9077.69	1509.38	9202.32	9.44043	176.531
58	1.9953	9216.05	1726.92	9376.45	10.6131	179.913
59	1.5849	9373.31	1990.51	9582.34	11.9892	183.316
60	1.2589	9539.7	2291.69	9811.1	13.508	186.518
61	1	9738.44	2651.2	10092.9	15.2291	190.23
62	0.79433	9964.3	3088.73	10432	17.2224	194.202
63	0.63096	10215.8	3623.4	10839.4	19.5288	198.419
64	0.50119	10450.9	4251.85	11282.7	22.1385	202.576
65	0.39811	10754.8	4986.32	11854.5	24.8741	207.048
66	0.31623	11124.6	5933.53	12608.1	28.0741	212.78
67	0.25119	11536.1	7038.8	13513.9	31.3897	218.767
68	0.19953	11974	8487.07	14676.8	35.3286	225.484
69	0.15849	12508.8	10127.3	16094.5	38.9943	233.151
70	0.12589	13167.8	12120.2	17896.6	42.6277	242.464
71	0.1	13940.5	14401.9	20043.8	45.9326	253.421

File: Z_s2_1.3.txt
Index	Frequency (Hz)	Z' (Ω)	-Z'' (Ω)	Z (Ω)	-Phase (°)	Time (s)
1	1000000	3345.25	2889.24	4420.23	40.8166	20.3255
2	794330	3840.53	2696.4	4692.57	35.0723	21.8825
3	630960	4379.01	2543.32	5064.02	30.1479	23.4945
4	501190	4884.3	2442.7	5461.06	26.5703	25.1116
5	398110	5476.92	2264.66	5926.67	22.4647	26.9586
6	316230	5881.14	2111.09	6248.56	19.7461	28.7506
7	251190	6119.24	1868.09	6398.04	16.9764	31.5997
8	199530	6445.5	1711.74	6668.92	14.8728	33.0167
9	158490	6713.14	1543.16	6888.22	12.9458	34.7837
10	125890	6939.57	1374.5	7074.38	11.2034	36.2558
11	100000	7121.63	1210.75	7223.81	9.64858	38.1528
12	79433	7272.6	1061.53	7349.67	8.30441	39.6798
13	63096	7395.95	924.629	7453.52	7.12605	41.4219
14	50119	7497.35	801.156	7540.04	6.09939	43.1189
15	39811	7579.97	690.242	7611.33	5.20308	44.8609
16	31623	7638.82	592.299	7661.75	4.43373	46.523
17	25119	7692.53	515.782	7709.8	3.83592	48.34
18	19953	7736.11	448.982	7749.13	3.32156	49.937
19	15849	7777.5	391.697	7787.36	2.88314	51.5491
20	12589	7816.03	344.094	7823.6	2.52077	53.4061
21	10000	7840.26	303.974	7846.15	2.22029	55.0331
22	7943.3	7866.62	271.502	7871.31	1.97667	56.8352
23	6309.6	7892.9	244.66	7896.69	1.77546	58.4372
24	5011.9	7916.49	222.471	7919.62	1.60972	60.2342
25	3981.1	7935.66	204.702	7938.3	1.47763	61.7763
26	3162.3	7957.4	189.452	7959.65	1.36386	63.5133
27	2511.9	7975.3	177.893	7977.28	1.2778	65.0553
28	1995.3	7997.5	169.348	7999.29	1.21306	66.9423
29	1584.9	8013.17	162.79	8014.82	1.16382	68.4994
30	1258.9	8035.35	158.9	8036.93	1.13288	70.2664
31	1000	8051.22	157.547	8052.76	1.12103	71.8534
32	794.33	8061.79	157.217	8063.32	1.11721	73.6305
33	630.96	8085.54	160.183	8087.13	1.13494	75.3025
34	501.19	8103.73	165.151	8105.41	1.16751	77.1695
35	398.11	8123.85	171.597	8125.67	1.21006	78.9266
36	316.23	8140.48	182.781	8142.53	1.28626	80.6936
37	251.19	8160.62	195.169	8162.95	1.37003	82.4006
38	199.53	8182.92	210.112	8185.62	1.47086	83.9077
39	158.49	8209.36	227.246	8212.5	1.58562	85.5697
40	125.89	8234.83	246.082	8238.5	1.71167	87.2917
41	100	8266.4	271.694	8270.86	1.88248	89.0788
42	79.433	8299.37	297.308	8304.69	2.05163	90.8408
43	63.096	8330.82	331.15	8337.4	2.27631	92.8678
44	50.119	8380.93	368.405	8389.03	2.51696	94.7399
45	39.811	8419.83	394.896	8429.08	2.68525	96.5219
46	31.623	8469.5	437.536	8480.79	2.95728	98.3539
47	25.119	8525.65	477.445	8539.01	3.20527	100.241
48	19.953	8588.78	532.394	8605.27	3.54706	102.323
49	15.849	8651.6	588.699	8671.6	3.8927	104.605
50	12.589	8723.93	654.815	8748.47	4.29255	107.017
51	10	8793.58	726.797	8823.56	4.7248	109.694
52	7.9433	8869.3	810.918	8906.29	5.22402	112.241
53	6.3096	8963.92	908.845	9009.88	5.78939	114.968
54	5.0119	9060.28	1019.56	9117.47	6.42053	117.77
55	3.9811	9165.92	1154.11	9238.3	7.17655	120.537
56	3.1623	9287.52	1307.59	9379.12	8.01398	123.284
57	2.5119	9418.9	1488.5	9535.79	8.98035	126.066
58	1.9953	9557.87	1701.53	9708.15	10.0942	129.209
59	1.5849	9716.09	1947.32	9909.31	11.3332	132.456
60	1.2589	9878.6	2233.6	10128	12.7406	135.793
61	1	10078.9	2603.69	10409.8	14.4846	141.547
62	0.79433	10311	3030.69	10747.2	16.3795	144.729
63	0.63096	10545.6	3515.77	11116.2	18.4377	148.581
64	0.50119	10791.5	4144.04	11559.9	21.0072	152.763
65	0.39811	11074.2	4858.6	12093.1	23.6886	157.51
66	0.31623	11394.5	5758.53	12767	26.8109	162.562
67	0.25119	11791.1	6921.69	13672.6	30.4141	168.419
68	0.19953	12208.8	8178.98	14695.2	33.8191	174.941
69	0.15849	12726.8	9732.98	16021.9	37.4074	182.623
70	0.12589	13312.5	11745.8	17753.5	41.4223	191.576
71	0.1	14148.5	14068.6	19952.6	44.8376	202.313