Folder: Streamlit_cement/data (part 6)

File: Z_s8_1.2.txt
Index	Frequency (Hz)	Z' (Ω)	-Z'' (Ω)	Z (Ω)	-Phase (°)	Time (s)
1	1000000	2230.95	1382.63	2624.65	31.7886	46.612
2	794330	2440.78	1343.25	2785.98	28.8257	48.339
3	630960	2645.7	1177.32	2895.83	23.9888	49.941
4	501190	2860.29	1089.22	3060.66	20.8472	51.5381
5	398110	3067.97	974.862	3219.13	17.6279	53.7801
6	316230	3230.87	888.424	3350.79	15.3752	55.2021
7	251190	3307.29	764.68	3394.54	13.0186	61.2592
8	199530	3438.47	689.875	3506.99	11.3449	62.9063
9	158490	3544.45	613.481	3597.15	9.81959	64.3433
10	125890	3626.88	539.428	3666.77	8.45962	65.9753
11	100000	3695.68	471.08	3725.58	7.2642	67.4874
12	79433	3751	409.911	3773.33	6.23657	69.0244
13	63096	3794.1	354.744	3810.65	5.34157	70.4314
14	50119	3829.8	306.527	3842.05	4.57604	71.8634
15	39811	3861.22	264.613	3870.28	3.9204	73.6555
16	31623	3882.27	228.778	3889	3.37248	75.1675
17	25119	3902.38	200.17	3907.51	2.93638	76.7245
18	19953	3920.64	176.178	3924.59	2.57292	78.1766
19	15849	3934.5	155.798	3937.59	2.26761	80.0036
20	12589	3947.99	139.686	3950.46	2.02637	82.4956
21	10000	3960.08	126.385	3962.1	1.82796	86.2577
22	7943.3	3972.42	116.107	3974.11	1.67418	88.7198
23	6309.6	3984.17	107.925	3985.63	1.55168	90.0818
24	5011.9	3993.75	101.972	3995.05	1.46261	92.0588
25	3981.1	4004.7	97.6801	4005.89	1.39725	93.7408
26	3162.3	4014.41	94.82	4015.53	1.35307	95.8879
27	2511.9	4025.52	93.5897	4026.61	1.33183	98.0749
28	1995.3	4035.59	94.2781	4036.69	1.33828	100.062
29	1584.9	4044.64	96.1447	4045.79	1.36171	101.894
30	1258.9	4054.73	99.3662	4055.94	1.40382	104.071
31	1000	4063.7	104.982	4065.06	1.47986	106.348
32	794.33	4077.09	112.428	4078.64	1.57957	108.44
33	630.96	4090.07	121.745	4091.88	1.70496	110.617
34	501.19	4103.05	133.31	4105.21	1.86091	113.229
35	398.11	4118.09	148.025	4120.75	2.05861	115.256
36	316.23	4135.12	165.062	4138.42	2.28587	117.053
37	251.19	4153.19	184.814	4157.3	2.54793	119.2
38	199.53	4176.14	207.597	4181.3	2.84584	120.742
39	158.49	4200.06	233.396	4206.54	3.18064	122.554
40	125.89	4229.41	262.027	4237.51	3.54515	124.436
41	100	4264.28	293.407	4274.36	3.93607	126.458
42	79.433	4302.22	328.025	4314.71	4.3601	128.06
43	63.096	4347.79	365.136	4363.1	4.80054	130.053
44	50.119	4399.51	404.017	4418.02	5.24689	132.165
45	39.811	4452.71	445.695	4474.96	5.716	134.282
46	31.623	4511.87	489.325	4538.32	6.1897	136.809
47	25.119	4576.2	537.753	4607.69	6.70214	138.856
48	19.953	4645.85	590.608	4683.24	7.24492	141.543
49	15.849	4718.41	648.15	4762.72	7.82155	144.405
50	12.589	4797.8	713.606	4850.58	8.45992	146.927
51	10	4880.36	786.927	4943.39	9.15975	149.984
52	7.9433	4965.7	873.111	5041.88	9.97228	152.831
53	6.3096	5059.16	975.461	5152.34	10.9133	155.898
54	5.0119	5156.03	1093.44	5270.69	11.9733	158.765
55	3.9811	5263.77	1235.88	5406.91	13.2131	161.812
56	3.1623	5378.02	1404.96	5558.51	14.6408	164.809
57	2.5119	5502.5	1607.83	5732.59	16.2884	167.796
58	1.9953	5638.92	1851.87	5935.22	18.1806	170.983
59	1.5849	5785.95	2141.97	6169.71	20.3147	174.205
60	1.2589	5948.93	2498.11	6452.16	22.7788	177.597
61	1	6127.66	2923.27	6789.24	25.504	181.649
62	0.79433	6335.2	3442.83	7210.26	28.5216	185.127
63	0.63096	6572.61	4068.81	7730.1	31.7598	189.274
64	0.50119	6824.48	4846.42	8370.26	35.3806	193.501
65	0.39811	7107.01	5763.53	9150.3	39.0408	198.133
66	0.31623	7463.52	6912.62	10172.9	42.8055	203.45
67	0.25119	7828.6	8341.53	11439.8	46.8169	209.062
68	0.19953	8288.19	9998.41	12987	50.343	215.619
69	0.15849	8837.92	12063	14954.1	53.7716	223.286
70	0.12589	9480.13	14572.9	17385.1	56.9547	232.863
71	0.1	10202.8	17725.7	20452.3	60.0756	244.276

File: Z_s8_1.3.txt
Index	Frequency (Hz)	Z' (Ω)	-Z'' (Ω)	Z (Ω)	-Phase (°)	Time (s)
1	1000000	2296.48	1450.6	2716.26	32.279	15.4864
2	794330	2497.72	1349.03	2838.75	28.3738	17.3634
3	630960	2729.39	1244.03	2999.53	24.5031	19.2955
4	501190	2956.68	1161.29	3176.56	21.4433	20.9525
5	398110	3185.18	1033.7	3348.72	17.98	22.7645
6	316230	3359.37	942.379	3489.04	15.67	24.4866
7	251190	3443.93	812.042	3538.37	13.2674	26.2886
8	199530	3581.83	731.739	3655.81	11.5462	28.0406
9	158490	3694.5	650.069	3751.26	9.97936	29.8377
10	125890	3780.98	571.037	3823.86	8.5884	31.4197
11	100000	3852.99	498.441	3885.1	7.37111	33.2067
12	79433	3909.86	432.892	3933.75	6.31794	34.7688
13	63096	3955.62	374.592	3973.32	5.4097	36.5108
14	50119	3992.12	323.515	4005.21	4.63303	38.1178
15	39811	4024.93	279.072	4034.59	3.9663	39.8899
16	31623	4045.94	240.997	4053.11	3.40881	41.5469
17	25119	4068.34	210.961	4073.81	2.96837	43.2739
18	19953	4084.74	185.277	4088.94	2.59705	44.906
19	15849	4103.19	164.122	4106.47	2.29053	46.638
20	12589	4116.44	146.775	4119.05	2.04206	48.32
21	10000	4127.03	132.627	4129.16	1.84063	50.0871
22	7943.3	4139.8	121.449	4141.58	1.6804	51.8491
23	6309.6	4151.63	112.539	4153.15	1.55275	53.6111
24	5011.9	4162.99	105.863	4164.33	1.45669	55.3032
25	3981.1	4173.36	100.852	4174.58	1.38432	57.0002
26	3162.3	4182.82	97.4934	4183.95	1.33521	58.6522
27	2511.9	4193.1	95.9513	4194.2	1.31088	60.2392
28	1995.3	4202.69	95.7054	4203.78	1.30454	61.9313
29	1584.9	4213.67	97.0877	4214.78	1.31993	63.5733
30	1258.9	4221.81	100.656	4223.01	1.36578	65.7553
31	1000	4234.05	105.22	4235.35	1.42356	67.4424
32	794.33	4246.31	111.868	4247.78	1.50909	69.3544
33	630.96	4256.32	120.794	4258.03	1.62562	71.0014
34	501.19	4270.71	132.177	4272.76	1.77272	72.6335
35	398.11	4284.79	146.059	4287.28	1.95233	74.3055
36	316.23	4299.84	162.855	4302.92	2.16902	75.9075
37	251.19	4317.02	182.168	4320.86	2.41631	77.5446
38	199.53	4337.18	204.435	4342	2.69866	79.2616
39	158.49	4362.87	230.315	4368.94	3.02183	80.7486
40	125.89	4391.8	259.266	4399.45	3.37848	82.5807
41	100	4424.36	290.066	4433.86	3.751	84.1777
42	79.433	4460.94	325.451	4472.8	4.17266	86.0397
43	63.096	4502.72	362.655	4517.3	4.60473	87.8068
44	50.119	4555.27	404.187	4573.17	5.07054	89.8588
45	39.811	4606.6	444.103	4627.95	5.50663	91.6558
46	31.623	4669.37	488.948	4694.9	5.97788	93.7829
47	25.119	4733.43	537.714	4763.88	6.48096	95.6199
48	19.953	4801.69	591.978	4838.04	7.02827	97.9119
49	15.849	4873.97	651.052	4917.27	7.60837	100.289
50	12.589	4952.27	713.909	5003.47	8.20312	102.666
51	10	5036.73	788.791	5098.12	8.90066	105.398
52	7.9433	5122.38	874.409	5196.48	9.68723	108.2
53	6.3096	5215.85	974.349	5306.08	10.5812	110.882
54	5.0119	5315.07	1091.98	5426.08	11.6098	113.449
55	3.9811	5421.49	1232.84	5559.9	12.8111	116.276
56	3.1623	5538	1399.49	5712.09	14.1822	119.333
57	2.5119	5659.32	1597.44	5880.45	15.7626	122.525
58	1.9953	5794.94	1836.23	6078.9	17.5817	125.372
59	1.5849	5949.64	2126.82	6318.35	19.6705	128.375
60	1.2589	6109.29	2475.29	6591.7	22.0562	131.642
61	1	6280.5	2894.93	6915.58	24.7468	135.264
62	0.79433	6496.03	3413.44	7338.25	27.7204	138.646
63	0.63096	6715.88	4028.44	7831.44	30.9569	142.718
64	0.50119	6966.21	4768.13	8441.75	34.3903	146.995
65	0.39811	7245.26	5714.51	9227.64	38.2637	151.607
66	0.31623	7566.88	6850.2	10207	42.1542	156.809
67	0.25119	7980.8	8189.81	11435.3	45.7405	162.481
68	0.19953	8452.18	9905.7	13021.6	49.5271	168.943
69	0.15849	8995.23	11960.8	14965.8	53.0547	176.55
70	0.12589	9631.82	14380.8	17308.3	56.187	185.423
71	0.1	10254	17450.2	20239.9	59.561	195.96

File: Z_s8_1.4.txt
Index	Frequency (Hz)	Z' (Ω)	-Z'' (Ω)	Z (Ω)	-Phase (°)	Time (s)
1	1000000	2339.69	1432.13	2743.2	31.4709	20.5195
2	794330	2551.04	1301.41	2863.82	27.0284	22.3515
3	630960	2759.78	1226.05	3019.87	23.9534	24.3086
4	501190	2983.39	1133.22	3191.36	20.7989	26.1806
5	398110	3198.78	1013.78	3355.58	17.5848	28.2527
6	316230	3374.03	923.85	3498.22	15.313	30.1997
7	251190	3452.16	793.814	3542.25	12.9499	32.1717
8	199530	3588.65	715.362	3659.25	11.2736	34.0938
9	158490	3697.19	634.781	3751.29	9.74228	36.0508
10	125890	3785.98	558.294	3826.93	8.38858	37.9828
11	100000	3854.72	486.887	3885.34	7.19888	40.0499
12	79433	3911.76	423.133	3934.58	6.17365	42.4369
13	63096	3955.5	366.029	3972.4	5.28691	44.2689
14	50119	3992.91	316.343	4005.42	4.52987	46.196
15	39811	4023.98	272.967	4033.22	3.88072	48.348
16	31623	4046.58	236.069	4053.46	3.33874	50.1901
17	25119	4066.53	206.844	4071.79	2.91184	52.1721
18	19953	4084.93	181.853	4088.98	2.54901	54.1191
19	15849	4100.63	160.895	4103.78	2.24695	56.0262
20	12589	4116.21	144.13	4118.74	2.0054	58.1832
21	10000	4128.11	130.29	4130.16	1.80775	60.1402
22	7943.3	4138.06	119.235	4139.78	1.65048	61.9673
23	6309.6	4150.88	110.711	4152.36	1.52782	63.8443
24	5011.9	4163.19	104.144	4164.5	1.43298	65.5763
25	3981.1	4172.99	99.223	4174.17	1.36209	67.2834
26	3162.3	4182.38	95.9624	4183.48	1.31439	68.8554
27	2511.9	4192.73	94.2408	4193.79	1.28763	70.7674
28	1995.3	4203.39	93.8258	4204.44	1.27871	72.3995
29	1584.9	4211.76	95.304	4212.84	1.29627	74.1665
30	1258.9	4221.31	98.008	4222.45	1.33002	75.8035
31	1000	4231.66	102.692	4232.91	1.39015	77.4856
32	794.33	4244.68	109.381	4246.09	1.47613	79.4076
33	630.96	4255.48	117.87	4257.11	1.58659	81.0846
34	501.19	4268.47	128.794	4270.41	1.72828	82.8217
35	398.11	4280.42	142.034	4282.77	1.90051	84.3837
36	316.23	4297.7	158.343	4300.62	2.11003	86.3857
37	251.19	4316.77	177.234	4320.4	2.35107	88.0228
38	199.53	4336.39	198.881	4340.95	2.62594	89.9748
39	158.49	4361.63	224.231	4367.39	2.94299	91.8868
40	125.89	4385.39	251.57	4392.6	3.2832	93.9239
41	100	4418.62	282.655	4427.65	3.66017	96.1709
42	79.433	4454.58	316.641	4465.82	4.06586	98.3579
43	63.096	4499.83	354.726	4513.79	4.50736	100.64
44	50.119	4542.75	393.656	4559.78	4.95264	102.652
45	39.811	4598.07	434.642	4618.57	5.39995	104.649
46	31.623	4656.89	479.524	4681.52	5.87907	106.706
47	25.119	4720.16	526.594	4749.44	6.36576	108.848
48	19.953	4788.23	580.087	4823.24	6.90763	111.765
49	15.849	4859.2	638.142	4900.92	7.48165	114.532
50	12.589	4936.43	700.637	4985.9	8.07815	117.129
51	10	5015.37	774.313	5074.79	8.77649	119.966
52	7.9433	5102.76	859.991	5174.72	9.56642	123.068
53	6.3096	5196.41	958.405	5284.05	10.45	126.19
54	5.0119	5294.89	1074.03	5402.72	11.4664	129.273
55	3.9811	5399.27	1211.93	5533.61	12.6511	132.62
56	3.1623	5512.08	1375.18	5681.04	14.0084	135.877
57	2.5119	5634.97	1571.79	5850.08	15.5857	141.239
58	1.9953	5770.51	1806.91	6046.8	17.3868	144.706
59	1.5849	5912.34	2090.8	6271.15	19.4753	148.233
60	1.2589	6075.33	2430.33	6543.4	21.803	151.735
61	1	6248.45	2844.1	6865.28	24.4735	155.492
62	0.79433	6448.25	3347.3	7265.29	27.4339	159.269
63	0.63096	6681.72	3952.86	7763.4	30.6083	163.356
64	0.50119	6914.27	4701.76	8361.44	34.216	167.718
65	0.39811	7204.05	5608.11	9129.57	37.8995	172.74
66	0.31623	7504.65	6715.69	10070.8	41.8244	178.227
67	0.25119	7868.38	8078.22	11276.9	45.7539	184.725
68	0.19953	8373.55	9717.03	12827.2	49.2472	191.657
69	0.15849	8884.37	11777.2	14752.4	52.9701	199.879
70	0.12589	9462.62	14242.6	17099.5	56.4004	209.711
71	0.1	10235.1	17252.6	20060.1	59.3216	221.088

File: Z_s8_1.5.txt
Index	Frequency (Hz)	Z' (Ω)	-Z'' (Ω)	Z (Ω)	-Phase (°)	Time (s)
1	1000000	2363.71	1598.82	2853.65	34.0745	15.9504
2	794330	2601.77	1474.53	2990.56	29.5421	17.9975
3	630960	2867.57	1380.05	3182.37	25.6997	19.9045
4	501190	3124.76	1288.36	3379.94	22.4066	21.9765
5	398110	3385.87	1153.6	3576.99	18.8145	23.8736
6	316230	3582.23	1051.48	3733.36	16.3583	25.9706
7	251190	3678.16	907.121	3788.37	13.854	27.9426
8	199530	3831.56	816.359	3917.56	12.0277	29.9597
9	158490	3954.57	724.552	4020.4	10.3825	31.7217
10	125890	4053.5	635.968	4103.08	8.91665	33.6088
11	100000	4130.93	554.432	4167.97	7.64427	35.3208
12	79433	4194.28	481.055	4221.78	6.54284	37.4128
13	63096	4245.48	415.841	4265.8	5.59422	39.2549
14	50119	4288.87	359.365	4303.9	4.78964	41.3369
15	39811	4320.94	309.425	4332	4.09599	43.2239
16	31623	4346.47	267.097	4354.67	3.51649	45.111
17	25119	4370.36	233.655	4376.6	3.06032	46.973
18	19953	4390.87	204.548	4395.64	2.66718	48.905
19	15849	4408.94	180.967	4412.65	2.35041	50.8671
20	12589	4424.44	161.021	4427.37	2.08427	52.8191
21	10000	4439.01	145.307	4441.38	1.87486	54.9911
22	7943.3	4451.35	132.305	4453.31	1.70247	57.5182
23	6309.6	4464.17	122.128	4465.84	1.56708	59.0352
24	5011.9	4475.97	114.323	4477.42	1.46311	60.5423
25	3981.1	4487.9	108.199	4489.21	1.38107	61.9093
26	3162.3	4498.88	104.099	4500.08	1.32553	63.3213
27	2511.9	4508.55	101.385	4509.69	1.28821	65.7983
28	1995.3	4520.23	100.691	4521.35	1.27609	67.3354
29	1584.9	4532.05	101.119	4533.18	1.27816	68.7324
30	1258.9	4542.14	104.009	4543.33	1.31177	70.0094
31	1000	4551.34	107.604	4552.61	1.35435	71.4315
32	794.33	4562.98	113.853	4564.4	1.42932	73.0385
33	630.96	4577.01	122.031	4578.64	1.52724	74.4755
34	501.19	4589.46	132.817	4591.39	1.65765	76.9076
35	398.11	4602.8	146.193	4605.12	1.8192	78.3146
36	316.23	4619.54	162.014	4622.38	2.00862	79.7866
37	251.19	4639.88	181.891	4643.44	2.24494	81.5286
38	199.53	4658.87	203.361	4663.31	2.49939	82.9057
39	158.49	4682.3	228.761	4687.88	2.79705	84.7827
40	125.89	4708.49	257.095	4715.5	3.12539	86.2497
41	100	4738.04	288.944	4746.84	3.4898	87.6618
42	79.433	4775.22	324.706	4786.25	3.89002	89.1088
43	63.096	4820.17	365.808	4834.03	4.33992	90.5558
44	50.119	4873.1	404.036	4889.82	4.73964	92.5778
45	39.811	4923.83	448.573	4944.22	5.20543	94.6099
46	31.623	4984.54	493.407	5008.9	5.65315	96.7169
47	25.119	5049.53	546.344	5079	6.17521	99.989
48	19.953	5118.87	601.301	5154.07	6.69969	103.141
49	15.849	5195.84	660.433	5237.64	7.24391	105.608
50	12.589	5276.84	727.31	5326.72	7.84767	108.055
51	10	5361.95	801.982	5421.6	8.50662	110.692
52	7.9433	5452.35	890.135	5524.53	9.27215	113.544
53	6.3096	5550.14	990.728	5637.87	10.121	116.366
54	5.0119	5650.51	1107.13	5757.95	11.0857	119.113
55	3.9811	5759.81	1246.65	5893.18	12.2127	121.905
56	3.1623	5878.74	1413.71	6046.34	13.5216	124.927
57	2.5119	6005.11	1612.44	6217.82	15.03	128.009
58	1.9953	6144.3	1849.02	6416.48	16.7482	131.167
59	1.5849	6292.32	2136.57	6645.17	18.755	134.329
60	1.2589	6465.38	2484.95	6926.48	21.0241	137.546
61	1	6647.52	2901.58	7253.18	23.5808	140.993
62	0.79433	6852.88	3410.88	7654.81	26.4609	144.47
63	0.63096	7079.71	4025.23	8144.01	29.6208	148.402
64	0.50119	7315.98	4767.34	8732.19	33.0896	152.599
65	0.39811	7618.05	5673.26	9498.45	36.6755	157.136
66	0.31623	7939.05	6788.57	10445.7	40.5333	162.073
67	0.25119	8315.81	8192.77	11673.7	44.573	167.82
68	0.19953	8733.77	9820.14	13142.1	48.351	174.487
69	0.15849	9285.26	11842	15048.3	51.9002	182.265
70	0.12589	9855.02	14390.3	17441.4	55.5952	191.047
71	0.1	10672.8	17431.4	20439.2	58.5219	201.574

File: Z_s8_1.txt
Index	Frequency (Hz)	Z' (Ω)	-Z'' (Ω)	Z (Ω)	-Phase (°)	Time (s)
1	1000000	2158.7	1283.32	2511.35	30.731	88.0208
2	794330	2323.05	1181.47	2606.23	26.9573	91.4128
3	630960	2522.44	1104.02	2753.47	23.638	93.7399
4	501190	2720.84	1025.16	2907.57	20.6455	95.9669
5	398110	2912.05	922.281	3054.61	17.5736	98.544
6	316230	3066.77	847.667	3181.76	15.451	100.386
7	251190	3143.59	737.891	3229.03	13.2098	102.188
8	199530	3274.21	672.593	3342.58	11.6083	104.015
9	158490	3378.14	603.281	3431.58	10.1254	106.057
10	125890	3465.57	535.024	3506.62	8.77619	107.904
11	100000	3536.1	470.055	3567.2	7.57196	110.801
12	79433	3592.26	410.08	3615.59	6.51249	112.708
13	63096	3640.08	355.977	3657.45	5.5854	114.76
14	50119	3676.15	307.811	3689.01	4.78632	116.722
15	39811	3708.28	265.549	3717.78	4.09594	118.569
16	31623	3732.56	229.365	3739.6	3.51639	120.731
17	25119	3751.71	200.428	3757.06	3.05801	122.538
18	19953	3768.14	176.072	3772.25	2.67529	124.7
19	15849	3785.33	155.953	3788.54	2.35921	126.347
20	12589	3798.24	139.929	3800.82	2.10986	128.265
21	10000	3810.81	127.08	3812.93	1.90995	130.027
22	7943.3	3823.27	117.078	3825.06	1.75399	131.959
23	6309.6	3832.65	109.517	3834.21	1.63677	133.736
24	5011.9	3843.95	104.192	3845.36	1.55264	135.758
25	3981.1	3855.04	100.802	3856.36	1.49783	137.61
26	3162.3	3865.61	99.1584	3866.88	1.4694	139.442
27	2511.9	3875	98.9396	3876.26	1.4626	141.449
28	1995.3	3887.52	100.838	3888.83	1.48585	143.171
29	1584.9	3897.48	104.114	3898.87	1.53019	144.883
30	1258.9	3908.11	109.384	3909.64	1.60324	146.52
31	1000	3922.68	116.371	3924.4	1.69925	148.057
32	794.33	3934.2	125.337	3936.2	1.82473	149.929
33	630.96	3949.23	136.794	3951.6	1.98382	151.561
34	501.19	3965.05	150.503	3967.9	2.17375	153.448
35	398.11	3980.21	167.675	3983.74	2.41229	155.105
36	316.23	4002.24	187.022	4006.61	2.67545	156.997
37	251.19	4026.01	209.912	4031.48	2.98464	158.794
38	199.53	4051.81	235.003	4058.62	3.3194	160.731
39	158.49	4079.03	263.277	4087.51	3.69298	162.878
40	125.89	4113.62	294.526	4124.15	4.09525	165.055
41	100	4152.24	328.462	4165.21	4.52296	166.937
42	79.433	4198.88	364.828	4214.7	4.96578	169.114
43	63.096	4248.01	402.234	4267.01	5.40907	171.501
44	50.119	4303.84	444.111	4326.69	5.89147	173.523
45	39.811	4365.91	488.298	4393.13	6.38163	175.455
46	31.623	4430.62	533.889	4462.67	6.871	177.797
47	25.119	4500.68	584.516	4538.47	7.39975	180.184
48	19.953	4571.69	641.15	4616.43	7.98329	182.617
49	15.849	4652.47	703.213	4705.32	8.5951	185.124
50	12.589	4737.02	774.381	4799.9	9.28425	187.631
51	10	4822.59	854.796	4897.76	10.0512	190.768
52	7.9433	4918.85	950.741	5009.89	10.9395	193.54
53	6.3096	5017.93	1062.17	5129.12	11.9517	196.397
54	5.0119	5125.41	1195.68	5263.03	13.1314	199.449
55	3.9811	5240.28	1354.92	5412.61	14.4968	202.626
56	3.1623	5363.61	1542.84	5581.09	16.0478	205.858
57	2.5119	5500.7	1771.27	5778.85	17.8489	209.295
58	1.9953	5647.98	2042.67	6006.01	19.8832	213.202
59	1.5849	5809.41	2369.59	6274.09	22.1899	216.464
60	1.2589	5989.08	2764.55	6596.35	24.7779	220.341
61	1	6194.59	3244.36	6992.77	27.6429	224.518
62	0.79433	6424.24	3825.43	7476.95	30.7725	228.315
63	0.63096	6689.63	4523.15	8075.27	34.0643	232.292
64	0.50119	6979.24	5384.57	8814.95	37.6506	236.6
65	0.39811	7295.23	6411.65	9712.35	41.3117	242.152
66	0.31623	7707.12	7685.42	10884.2	44.9193	247.694
67	0.25119	8147.78	9206.63	12294.2	48.4915	253.886
68	0.19953	8680.43	11122.6	14109	52.0305	260.863
69	0.15849	9271.51	13394.6	16290.3	55.3096	268.945
70	0.12589	10055.3	16254.1	19112.9	58.2578	278.162
71	0.1	11019.3	19575.6	22464	60.6245	288.814

File: Z_s9_1.2.txt
Index	Frequency (Hz)	Z' (Ω)	-Z'' (Ω)	Z (Ω)	-Phase (°)	Time (s)
1	1000000	2747.87	1799.5	3284.66	33.2197	20.8665
2	794330	2973.95	1647.26	3399.69	28.9819	22.7635
3	630960	3292.23	1528.59	3629.79	24.9056	24.5856
4	501190	3573.37	1437.35	3851.61	21.912	26.4376
5	398110	3873.25	1289.59	4082.29	18.4151	28.1946
6	316230	4090.75	1186.01	4259.21	16.1682	30.0117
7	251190	4201.95	1031.22	4326.64	13.7887	31.7037
8	199530	4378.62	939.121	4478.2	12.1053	33.4557
9	158490	4525.65	844.644	4603.79	10.5718	35.0778
10	125890	4645.82	751.52	4706.22	9.18871	36.7548
11	100000	4745.6	664.572	4791.91	7.97184	38.3418
12	79433	4827.27	584.191	4862.49	6.90032	40.2339
13	63096	4892.79	511.846	4919.49	5.97212	41.9209
14	50119	4950.09	446.973	4970.23	5.15957	43.6729
15	39811	4993.88	389.448	5009.04	4.45919	45.34
16	31623	5031.74	339.704	5043.19	3.8623	47.037
17	25119	5061.16	299.123	5069.99	3.38234	48.724
18	19953	5091.84	264.551	5098.71	2.97418	50.5111
19	15849	5115.61	235.47	5121.03	2.63545	52.1981
20	12589	5136.62	211.106	5140.96	2.35343	54.1051
21	10000	5157.13	191.454	5160.68	2.12608	55.7821
22	7943.3	5177.27	175.707	5180.25	1.94377	57.4242
23	6309.6	5193.65	163.007	5196.2	1.79769	59.1112
24	5011.9	5210.19	153.206	5212.44	1.6843	60.8182
25	3981.1	5223.3	145.928	5225.34	1.60031	62.5103
26	3162.3	5242.39	140.756	5244.28	1.538	64.0373
27	2511.9	5255.22	137.844	5257.03	1.50252	65.9393
28	1995.3	5272.81	136.751	5274.58	1.48564	67.6364
29	1584.9	5286.96	138.152	5288.76	1.49684	69.3534
30	1258.9	5300.77	141.422	5302.66	1.52826	70.9254
31	1000	5318.82	145.978	5320.83	1.57212	72.7275
32	794.33	5335.78	152.913	5337.97	1.64153	74.4295
33	630.96	5354.87	161.928	5357.32	1.73206	76.3065
34	501.19	5376.17	173.326	5378.96	1.84656	78.7086
35	398.11	5397.31	187.283	5400.56	1.98733	80.4806
36	316.23	5416.08	203.325	5419.89	2.14993	81.8476
37	251.19	5444.15	221.832	5448.67	2.33334	83.1747
38	199.53	5470.84	243.507	5476.26	2.54855	84.4667
39	158.49	5501.41	266.985	5507.88	2.7784	86.0787
40	125.89	5535.64	293.196	5543.4	3.03185	87.4757
41	100	5573.94	322.107	5583.23	3.30734	88.9278
42	79.433	5613.98	354.031	5625.13	3.60843	90.4198
43	63.096	5664.95	386.563	5678.12	3.90368	92.0568
44	50.119	5714.4	424.957	5730.18	4.25302	93.9989
45	39.811	5769.94	466.837	5788.79	4.62564	95.7159
46	31.623	5830.87	511.173	5853.24	5.01012	97.5079
47	25.119	5899.59	558.356	5925.95	5.40655	99.26
48	19.953	5970.6	616.093	6002.31	5.89137	101.132
49	15.849	6047.4	676.456	6085.11	6.38252	103.199
50	12.589	6129.73	745.977	6174.95	6.93868	105.346
51	10	6212.48	821.827	6266.6	7.5357	107.698
52	7.9433	6310.64	912.824	6376.31	8.23066	110.3
53	6.3096	6412.12	1017.21	6492.31	9.01417	112.722
54	5.0119	6523.65	1134.46	6621.55	9.86509	115.249
55	3.9811	6642.04	1274.86	6763.28	10.8651	117.751
56	3.1623	6773.69	1440.52	6925.17	12.0059	120.293
57	2.5119	6917.03	1632.6	7107.09	13.2803	123.08
58	1.9953	7073.23	1863.21	7314.51	14.7574	125.947
59	1.5849	7248.06	2130.12	7554.58	16.3774	128.775
60	1.2589	7432.19	2449.43	7825.42	18.2407	131.717
61	1	7641.54	2839.99	8152.22	20.3876	135.039
62	0.79433	7888.42	3299.28	8550.58	22.6968	138.511
63	0.63096	8158.25	3835.83	9015.02	25.1819	142.273
64	0.50119	8447.26	4485.8	9564.45	27.9699	146.3
65	0.39811	8774.01	5297.84	10249.4	31.124	151.447
66	0.31623	9155.82	6251.08	11086.3	34.3231	156.434
67	0.25119	9520.78	7413.43	12066.7	37.9064	162.261
68	0.19953	10051.8	8783.69	13348.8	41.1484	168.798
69	0.15849	10627.5	10465.9	14915.7	44.561	176.37
70	0.12589	11301.1	12535.2	16877.4	47.9638	186.133
71	0.1	11931.6	15059.4	19213.3	51.6101	196.83

File: Z_s9_1.3.txt
Index	Frequency (Hz)	Z' (Ω)	-Z'' (Ω)	Z (Ω)	-Phase (°)	Time (s)
1	1000000	2781.4	2012.97	3433.4	35.8943	23.2896
2	794330	3087.28	1855.11	3601.77	31.0011	25.1866
3	630960	3439.07	1731.6	3850.41	26.7256	27.0386
4	501190	3766.34	1624.67	4101.81	23.3338	28.6957
5	398110	4115.36	1469.93	4370	19.6558	30.3627
6	316230	4366.53	1353.88	4571.61	17.2265	32.0297
7	251190	4498.56	1187.37	4652.63	14.7857	33.4617
8	199530	4702.08	1080.67	4824.67	12.9435	35.0688
9	158490	4868.59	970.13	4964.3	11.2693	36.5408
10	125890	5006.59	862.379	5080.32	9.77321	38.8428
11	100000	5116.93	760.249	5173.1	8.45091	40.3149
12	79433	5210.83	667.835	5253.45	7.30338	41.9369
13	63096	5284.83	583.757	5316.97	6.30327	43.4189
14	50119	5347.61	508.798	5371.76	5.43505	45.011
15	39811	5405.28	442.578	5423.37	4.68087	46.468
16	31623	5443.88	384.833	5457.47	4.04357	48.08
17	25119	5477.92	338.38	5488.36	3.53476	49.9271
18	19953	5511.04	298.407	5519.12	3.09937	51.9491
19	15849	5537.16	264.349	5543.47	2.73327	53.7211
20	12589	5562.07	236.012	5567.07	2.42975	55.6182
21	10000	5581.89	212.596	5585.94	2.18116	57.4052
22	7943.3	5604.83	193.92	5608.19	1.98157	59.3572
23	6309.6	5624.39	178.829	5627.23	1.82112	61.0793
24	5011.9	5643.44	166.626	5645.9	1.6912	62.9563
25	3981.1	5660.46	157.175	5662.65	1.59053	64.5233
26	3162.3	5677.03	150.306	5679.02	1.51662	66.3654
27	2511.9	5693.08	145.291	5694.93	1.46191	68.0474
28	1995.3	5710.67	143.064	5712.47	1.43508	69.6544
29	1584.9	5725.03	142.543	5726.81	1.42627	71.3714
30	1258.9	5743.13	143.688	5744.93	1.43319	72.9435
31	1000	5758.87	147.873	5760.77	1.47089	74.7305
32	794.33	5778.68	153.336	5780.71	1.51998	76.4125
33	630.96	5796.84	161.124	5799.08	1.59213	78.3046
34	501.19	5814.06	170.717	5816.56	1.68189	79.9266
35	398.11	5835.85	184.382	5838.76	1.80964	81.7386
36	316.23	5857.09	198.918	5860.47	1.94512	83.3807
37	251.19	5882.92	215.896	5886.88	2.10174	85.3327
38	199.53	5907.81	236.501	5912.54	2.29244	86.9847
39	158.49	5940.76	258.457	5946.38	2.49112	88.8668
40	125.89	5967.15	282.696	5973.85	2.71238	90.6488
41	100	6009.11	311.752	6017.2	2.96983	92.5808
42	79.433	6047.83	341.729	6057.48	3.23403	94.2529
43	63.096	6093.8	378.082	6105.52	3.55029	96.2949
44	50.119	6142.19	409.426	6155.82	3.81358	98.2719
45	39.811	6198.22	452.158	6214.69	4.17231	100.294
46	31.623	6256.8	494.072	6276.28	4.51503	102.361
47	25.119	6322.5	543.819	6345.84	4.9161	104.343
48	19.953	6387.34	597.22	6415.2	5.34166	106.83
49	15.849	6468.2	656.609	6501.44	5.79643	108.922
50	12.589	6549.29	722.519	6589.02	6.29543	111.389
51	10	6634.59	797.993	6682.41	6.85846	114.301
52	7.9433	6726.52	883.782	6784.34	7.48508	117.088
53	6.3096	6827.46	984.492	6898.07	8.20526	119.88
54	5.0119	6934.86	1099.34	7021.46	9.00775	122.742
55	3.9811	7054.27	1233.87	7161.37	9.92129	125.644
56	3.1623	7178.99	1390.73	7312.46	10.9637	128.557
57	2.5119	7322.98	1578.02	7491.07	12.1607	131.499
58	1.9953	7472.33	1793.39	7684.53	13.496	134.611
59	1.5849	7638.2	2052.58	7909.18	15.0415	137.723
60	1.2589	7816.72	2368.78	8167.75	16.8589	140.91
61	1	8026.79	2715.56	8473.7	18.6913	144.602
62	0.79433	8266.3	3164.89	8851.45	20.9502	148.314
63	0.63096	8519.84	3682.78	9281.73	23.3769	152.216
64	0.50119	8791.25	4302.04	9787.42	26.075	156.503
65	0.39811	9109.79	5076.63	10428.8	29.1297	161.16
66	0.31623	9478.44	5984.5	11209.6	32.2675	166.132
67	0.25119	9837.25	7062.23	12109.8	35.6748	172.174
68	0.19953	10365.2	8449.53	13372.8	39.1862	178.836
69	0.15849	10923	10113.5	14886.1	42.7962	186.524
70	0.12589	11512.4	11985.8	16619	46.1542	195.301
71	0.1	12072.7	14467.4	18842.9	50.1558	205.748