Folder: Streamlit_cement/data (part 10)

File: Z_s13_1.5.txt
Index	Frequency (Hz)	Z' (Ω)	-Z'' (Ω)	Z (Ω)	-Phase (°)	Time (s)
1	1000000	4164.93	4907.42	6436.57	49.6787	18.2415
2	794330	4979.71	4791.33	6910.45	43.8955	20.0235
3	630960	6303.36	4516.41	7754.37	35.6219	22.0105
4	501190	7348.28	4416.78	8573.51	31.0085	23.7776
5	398110	8585.49	4329.75	9615.47	26.7623	25.7896
6	316230	9394.29	4069.65	10237.9	23.4225	27.4416
7	251190	9922.56	3634.26	10567.2	20.1159	30.5807
8	199530	10562.2	3340.96	11078	17.5528	32.3327
9	158490	11094.8	3018.83	11498.2	15.2213	33.9798
10	125890	11542	2693.64	11852.2	13.1364	35.7868
11	100000	11905.2	2377.15	12140.2	11.292	37.6238
12	79433	12202	2082.31	12378.4	9.68438	39.3809
13	63096	12444.5	1813.55	12576	8.29141	40.9979
14	50119	12645.8	1565.2	12742.3	7.05573	42.7799
15	39811	12808.3	1341.35	12878.4	5.97848	44.602
16	31623	12922	1145.17	12972.7	5.06441	46.384
17	25119	13016.9	993.907	13054.8	4.36636	48.346
18	19953	13107.7	863.02	13136.1	3.76695	50.6431
19	15849	13178.1	747.223	13199.2	3.24532	52.3501
20	12589	13243.2	652.59	13259.2	2.82111	54.1471
21	10000	13270.8	562.368	13282.8	2.42653	55.8792
22	7943.3	13330.2	500.178	13339.6	2.14885	57.5912
23	6309.6	13380.4	449.046	13388	1.92212	59.3432
24	5011.9	13419.9	406.559	13426	1.73526	60.9853
25	3981.1	13466.1	372.421	13471.3	1.58418	62.6473
26	3162.3	13498.1	343.738	13502.5	1.45876	64.2443
27	2511.9	13530.6	320.843	13534.4	1.35837	66.0464
28	1995.3	13562.2	303.773	13565.6	1.28312	67.5984
29	1584.9	13597.5	290.214	13600.6	1.22269	69.4154
30	1258.9	13629.9	280.382	13632.8	1.17848	70.9324
31	1000	13660.4	271.589	13663.1	1.13897	72.7245
32	794.33	13696.5	268.838	13699.2	1.12447	74.5465
33	630.96	13731.3	268.113	13733.9	1.1186	76.3985
34	501.19	13755.5	270.49	13758.1	1.12653	78.2156
35	398.11	13791.4	274.751	13794.1	1.14129	79.9826
36	316.23	13824.1	283.365	13827	1.17428	81.6546
37	251.19	13857.3	298.448	13860.5	1.2338	83.4717
38	199.53	13893.8	309.5	13897.2	1.27612	85.1537
39	158.49	13924.5	331.031	13928.4	1.36185	86.8557
40	125.89	13962.3	361.017	13967	1.48114	88.5428
41	100	13994.2	382.924	13999.5	1.56739	90.3298
42	79.433	14048.8	424.618	14055.2	1.73121	92.1618
43	63.096	14098.8	496.496	14107.5	2.01687	93.9589
44	50.119	14115.2	509.469	14124.4	2.06711	95.9609
45	39.811	14218	567.567	14229.3	2.28598	98.0279
46	31.623	14304.9	630.536	14318.8	2.52386	100.29
47	25.119	14363	697.627	14379.9	2.78073	102.577
48	19.953	14459.4	766.027	14479.7	3.03256	104.654
49	15.849	14567.9	840.347	14592.1	3.30144	106.911
50	12.589	14667.3	923.681	14696.4	3.60347	109.398
51	10	14791.7	1022.79	14827	3.95548	111.895
52	7.9433	14929.5	1123.13	14971.7	4.30217	114.817
53	6.3096	15060.1	1234.62	15110.6	4.6866	117.724
54	5.0119	15202.8	1361.97	15263.7	5.11928	120.446
55	3.9811	15359.8	1504.5	15433.3	5.59431	123.318
56	3.1623	15528.6	1667.74	15617.9	6.12996	126.13
57	2.5119	15709.5	1858.92	15819.1	6.74847	129.043
58	1.9953	15906.1	2077.19	16041.2	7.4402	132.28
59	1.5849	16118.9	2336.98	16287.5	8.24946	135.567
60	1.2589	16390.2	2663.2	16605.2	9.22918	140.876
61	1	16604	3010.56	16874.7	10.277	146.345
62	0.79433	16902.7	3441.81	17249.6	11.5095	149.872
63	0.63096	17194.2	3985.57	17650.1	13.0505	153.939
64	0.50119	17492.7	4608.22	18089.6	14.7585	158.081
65	0.39811	17808.1	5333.83	18589.7	16.6739	162.758
66	0.31623	18229.1	6269.7	19277.2	18.9801	167.965
67	0.25119	18581.3	7426.16	20010.3	21.7845	173.977
68	0.19953	19165.3	8704	21049.2	24.4254	180.659
69	0.15849	19837.7	10382.8	22390.6	27.627	188.482
70	0.12589	20344.1	12257.9	23751.6	31.0701	197.314
71	0.1	21016.2	14928.6	25778.8	35.3877	207.866

File: Z_s13_1.txt
Index	Frequency (Hz)	Z' (Ω)	-Z'' (Ω)	Z (Ω)	-Phase (°)	Time (s)
1	1000000	3157.02	4504.76	5500.88	54.9765	23.8986
2	794330	4264.83	4616.64	6285.08	47.2684	26.7656
3	630960	5513.48	4653.22	7214.63	40.1634	30.0327
4	501190	6642.21	4490.36	8017.62	34.06	33.0197
5	398110	7942.53	4230.92	8999.13	28.0438	35.4568
6	316230	8707.04	3802.89	9501.29	23.5938	38.0138
7	251190	9136.38	3266.46	9702.74	19.6731	41.3409
8	199530	9637.42	2913.11	10068.1	16.8185	44.963
9	158490	10055.3	2583.52	10381.9	14.4094	48.615
10	125890	10385.5	2273.46	10631.4	12.3477	51.1021
11	100000	10668.8	1994.35	10853.6	10.5882	53.9691
12	79433	10902.4	1738.79	11040.2	9.06161	56.6062
13	63096	11097.7	1510.08	11199.9	7.74876	59.3782
14	50119	11264.5	1304.23	11339.8	6.60442	62.6353
15	39811	11396.6	1119.88	11451.4	5.61214	65.8323
16	31623	11493.4	956.921	11533.1	4.75939	68.5744
17	25119	11583.2	832.279	11613	4.10978	71.3914
18	19953	11659.4	723.007	11681.8	3.5484	74.0885
19	15849	11731.4	630.474	11748.3	3.07626	77.0956
20	12589	11784.8	552.187	11797.7	2.68269	80.0726
21	10000	11812.2	478.04	11821.8	2.3175	82.4497
22	7943.3	11869.5	429.47	11877.2	2.07222	84.9217
23	6309.6	11907.6	389.024	11913.9	1.8712	87.8388
24	5011.9	11961.2	356.477	11966.5	1.70707	90.9858
25	3981.1	12000.9	329.614	12005.4	1.57328	93.6629
26	3162.3	12040.4	309.784	12044.4	1.47382	96.6649
27	2511.9	12073.9	292.889	12077.4	1.38962	99.337
28	1995.3	12120.3	282.03	12123.6	1.33298	102.264
29	1584.9	12153.7	273.187	12156.8	1.28765	104.686
30	1258.9	12190.3	267.09	12193.2	1.25515	107.158
31	1000	12233.2	265.799	12236.1	1.24471	110.12
32	794.33	12268.6	266.954	12271.5	1.24651	113.092
33	630.96	12307.8	270.763	12310.8	1.26026	116.199
34	501.19	12346.5	277.139	12349.6	1.28589	118.716
35	398.11	12383	288.507	12386.4	1.33467	121.148
36	316.23	12429.3	301.638	12433	1.39019	123.985
37	251.19	12469.4	320.643	12473.5	1.47301	127.242
38	199.53	12516.3	341.329	12520.9	1.56211	130.745
39	158.49	12563.3	367.756	12568.7	1.67669	133.632
40	125.89	12618.2	401.652	12624.6	1.82318	136.019
41	100	12674.7	433.363	12682.1	1.95825	139.011
42	79.433	12729	476.826	12737.9	2.14529	141.878
43	63.096	12806.2	513.348	12816.5	2.29551	145.08
44	50.119	12877.9	590.02	12891.4	2.62326	147.977
45	39.811	12961.1	633.898	12976.6	2.79998	150.749
46	31.623	13058.1	695.91	13076.6	3.05061	153.461
47	25.119	13159.4	763.656	13181.6	3.32121	156.453
48	19.953	13255	832.285	13281.1	3.59291	160.01
49	15.849	13383.5	910.758	13414.5	3.89301	163.887
50	12.589	13511.5	993.334	13548	4.20469	167.324
51	10	13651.6	1077.92	13694.1	4.51467	171.041
52	7.9433	13795.9	1173.92	13845.8	4.86369	174.808
53	6.3096	13949.9	1291.15	14009.6	5.28801	178.71
54	5.0119	14111.6	1416.85	14182.5	5.73348	182.453
55	3.9811	14285.4	1567.19	14371.1	6.26066	186.155
56	3.1623	14470.2	1737.06	14574.1	6.84522	189.922
57	2.5119	14659.1	1939.2	14786.8	7.5357	193.744
58	1.9953	14878.3	2178.62	15036.9	8.33061	197.626
59	1.5849	15140.2	2461.87	15339.1	9.23575	202.373
60	1.2589	15373.9	2789.82	15625	10.2852	207.175
61	1	15634.2	3198.37	15958	11.5618	212.017
62	0.79433	15939	3668.41	16355.7	12.9611	217.434
63	0.63096	16280	4244.29	16824.1	14.6121	222.471
64	0.50119	16631.1	4946.45	17351.1	16.5636	227.733
65	0.39811	17015.5	5746.59	17959.6	18.6612	233.745
66	0.31623	17395.2	6757.7	18661.7	21.2302	240.278
67	0.25119	17990.7	7934.34	19662.7	23.7986	247.23
68	0.19953	18500.9	9400.46	20752.2	26.9354	255.002
69	0.15849	19300.6	11259.1	22344.6	30.2573	263.749
70	0.12589	20056.8	13397.1	24119.6	33.7412	273.561
71	0.1	20881.7	16093.8	26363.9	37.6219	286.168

File: Z_s14_1.2.txt
Index	Frequency (Hz)	Z' (Ω)	-Z'' (Ω)	Z (Ω)	-Phase (°)	Time (s)
1	1000000	3263.74	2467.44	4091.49	37.0899	21.4635
2	794330	3639	2245.08	4275.83	31.6725	23.2656
3	630960	4080.14	2093.27	4585.77	27.1596	24.9876
4	501190	4503.53	1958.55	4910.98	23.5039	26.9196
5	398110	4938.66	1793.6	5254.27	19.9597	28.7317
6	316230	5252.03	1646.12	5503.95	17.4023	30.4137
7	251190	5416.03	1428.16	5601.16	14.7721	32.1107
8	199530	5663.28	1292.14	5808.82	12.8527	33.8478
9	158490	5861.8	1150.76	5973.68	11.1068	35.5698
10	125890	6023	1012.77	6107.55	9.54505	37.3218
11	100000	6151.06	883.268	6214.15	8.17159	39.1989
12	79433	6255.57	766.562	6302.36	6.98624	40.9709
13	63096	6336.93	661.608	6371.38	5.96038	42.6479
14	50119	6404.9	569.505	6430.17	5.08121	44.3849
15	39811	6456.56	488.495	6475.02	4.32668	45.992
16	31623	6496.32	419.264	6509.83	3.69268	47.789
17	25119	6530.79	365.175	6541	3.20041	49.451
18	19953	6561.54	319.56	6569.32	2.78822	51.2081
19	15849	6588.14	281.33	6594.14	2.44519	52.8151
20	12589	6612.59	250.375	6617.33	2.16838	54.6671
21	10000	6632.46	225.308	6636.29	1.94562	56.2592
22	7943.3	6654.29	205.578	6657.46	1.76954	58.0362
23	6309.6	6672.93	190.101	6675.64	1.63182	59.7132
24	5011.9	6689.36	178.64	6691.75	1.52973	61.5403
25	3981.1	6709.11	170.412	6711.27	1.455	63.0873
26	3162.3	6728.02	164.534	6730.03	1.4009	64.8893
27	2511.9	6745.21	160.953	6747.13	1.36692	66.4864
28	1995.3	6763.57	160.133	6765.46	1.35627	68.4034
29	1584.9	6781.27	161.162	6783.18	1.36143	69.9854
30	1258.9	6800.65	163.758	6802.62	1.3794	71.7625
31	1000	6821.7	169.007	6823.79	1.41921	73.5345
32	794.33	6842.08	176.208	6844.35	1.47525	75.2215
33	630.96	6863.44	185.147	6865.94	1.54523	76.9086
34	501.19	6884.25	195.797	6887.03	1.62913	78.5656
35	398.11	6910.37	209.069	6913.53	1.73292	80.2026
36	316.23	6934.12	225.952	6937.8	1.86635	81.9446
37	251.19	6956.42	245.048	6960.73	2.01748	83.7817
38	199.53	6988.38	268.122	6993.52	2.19718	85.2937
39	158.49	7015.53	295.564	7021.76	2.41244	87.0607
40	125.89	7052.07	328.551	7059.72	2.66744	89.0178
41	100	7088.25	365.424	7097.66	2.95118	90.7448
42	79.433	7136.36	409.275	7148.08	3.28236	92.3218
43	63.096	7178.75	456.929	7193.28	3.64197	94.1739
44	50.119	7241.61	514.02	7259.83	4.06012	96.1559
45	39.811	7314.35	569.689	7336.5	4.45358	98.0079
46	31.623	7393.89	627.398	7420.46	4.85013	99.895
47	25.119	7480.49	694.514	7512.67	5.30432	101.847
48	19.953	7575.45	766.328	7614.11	5.77636	104.089
49	15.849	7681.37	838.008	7726.95	6.22613	106.501
50	12.589	7795.32	916.353	7849	6.70445	109.858
51	10	7911.2	996.9	7973.76	7.18206	112.48
52	7.9433	8038.17	1085.78	8111.17	7.69285	115.207
53	6.3096	8171.41	1190.45	8257.67	8.28879	117.824
54	5.0119	8306.64	1306.9	8408.82	8.94116	120.591
55	3.9811	8453.51	1441.74	8575.57	9.6786	123.503
56	3.1623	8604.05	1603.3	8752.16	10.5556	126.38
57	2.5119	8767.64	1788.89	8948.28	11.532	129.328
58	1.9953	8931.23	2015.96	9155.92	12.7196	132.205
59	1.5849	9113.12	2285.83	9395.42	14.0809	135.257
60	1.2589	9310.58	2611.62	9669.93	15.6688	138.559
61	1	9504.41	3027.6	9974.97	17.6691	142.271
62	0.79433	9754.73	3514.91	10368.7	19.8156	145.703
63	0.63096	9985.62	4072.98	10784.3	22.1898	149.35
64	0.50119	10255.1	4818.15	11330.6	25.1655	153.657
65	0.39811	10516.2	5693.08	11958.3	28.4294	158.394
66	0.31623	10859.7	6784.56	12804.8	31.995	163.546
67	0.25119	11249.8	8201.12	13921.8	36.0922	169.288
68	0.19953	11661.1	9778.1	15218.2	39.9806	175.915
69	0.15849	12187.6	11733.9	16918.1	43.9135	183.593
70	0.12589	12767.7	14256.8	19138.2	48.154	192.49
71	0.1	13617.5	17297.7	22014.7	51.7886	203.117

File: Z_s14_1.3.txt
Index	Frequency (Hz)	Z' (Ω)	-Z'' (Ω)	Z (Ω)	-Phase (°)	Time (s)
1	1000000	3313.53	2589.61	4205.42	38.0085	21.4455
2	794330	3697.8	2346.65	4379.55	32.3995	23.1925
3	630960	4180.46	2203.43	4725.6	27.7928	25.0696
4	501190	4610.14	2072.27	5054.47	24.2041	26.9616
5	398110	5095.74	1897.27	5437.48	20.4216	28.7437
6	316230	5423.98	1739.43	5696.07	17.7807	30.4607
7	251190	5603.65	1512.27	5804.13	15.1027	32.1027
8	199530	5862.14	1366.98	6019.41	13.1261	33.8247
9	158490	6073.94	1216.23	6194.51	11.323	35.4768
10	125890	6240.26	1069.06	6331.17	9.72138	37.2338
11	100000	6377.21	931.824	6444.93	8.31311	38.9708
12	79433	6487.42	807.796	6537.52	7.09778	40.9329
13	63096	6570.01	696.355	6606.82	6.05019	42.4849
14	50119	6637.47	597.937	6664.35	5.1476	44.3069
15	39811	6697.28	512.519	6716.87	4.37611	45.859
16	31623	6741.34	439.182	6755.63	3.72741	47.716
17	25119	6774.16	382.078	6784.92	3.22819	49.323
18	19953	6804.17	333.224	6812.32	2.80373	51.1701
19	15849	6834.92	292.632	6841.19	2.45158	52.8671
20	12589	6855.08	259.725	6860	2.16978	55.2141
21	10000	6877.19	233.107	6881.14	1.94134	57.4912
22	7943.3	6897.85	212.371	6901.12	1.76346	59.3382
23	6309.6	6919.56	196.117	6922.34	1.62347	61.0152
24	5011.9	6937.5	182.856	6939.91	1.50983	62.9123
25	3981.1	6954.5	173.584	6956.66	1.42981	64.6343
26	3162.3	6971.45	166.94	6973.45	1.37176	66.5264
27	2511.9	6990.57	163.132	6992.47	1.33682	68.2384
28	1995.3	7009.2	161.317	7011.06	1.31843	70.1204
29	1584.9	7026.78	161.848	7028.65	1.31946	71.6724
30	1258.9	7048.58	162.834	7050.47	1.32339	73.3345
31	1000	7063.77	167.749	7065.76	1.36039	75.0415
32	794.33	7083.42	174.55	7085.57	1.4116	77.0035
33	630.96	7105.68	182.556	7108.03	1.4717	78.6906
34	501.19	7130.37	192.541	7132.97	1.54678	80.6576
35	398.11	7152.91	205.161	7155.85	1.64292	82.2096
36	316.23	7172.78	220.597	7176.17	1.76156	83.9367
37	251.19	7196.88	239.282	7200.86	1.90427	85.7237
38	199.53	7225.08	262.356	7229.84	2.0796	87.4857
39	158.49	7251.84	288.896	7257.59	2.28132	89.2128
40	125.89	7288.97	320.619	7296.02	2.51864	91.2248
41	100	7322.36	357.043	7331.06	2.79157	92.8968
42	79.433	7365.21	399.361	7376.03	3.10368	94.7389
43	63.096	7410.63	442.964	7423.85	3.42074	96.4809
44	50.119	7472.73	493.239	7488.99	3.77634	98.6679
45	39.811	7542.5	556.916	7563.03	4.22289	100.315
46	31.623	7615.25	619.653	7640.42	4.65191	102.382
47	25.119	7701.09	683.496	7731.36	5.07189	104.229
48	19.953	7790.18	755.239	7826.7	5.53738	106.436
49	15.849	7900.94	827.164	7944.12	5.97663	108.958
50	12.589	8007.24	910.096	8058.79	6.48436	111.335
51	10	8122.58	988.653	8182.53	6.93971	114.222
52	7.9433	8246.11	1082.63	8316.88	7.47957	116.999
53	6.3096	8379.75	1192.82	8464.22	8.10136	119.646
54	5.0119	8514.49	1307.81	8614.34	8.73231	122.438
55	3.9811	8659.67	1447.29	8779.78	9.48817	125.39
56	3.1623	8809.11	1609.32	8954.91	10.3531	128.207
57	2.5119	8975.71	1800.97	9154.61	11.3457	131.415
58	1.9953	9138.39	2026.66	9360.43	12.5044	134.387
59	1.5849	9321.57	2309.01	9603.29	13.9125	137.579
60	1.2589	9510.22	2626.19	9866.16	15.4372	140.816
61	1	9719.45	3046.64	10185.8	17.404	146.115
62	0.79433	9946.19	3547.04	10559.7	19.6274	149.552
63	0.63096	10203.4	4122.16	11004.6	21.9987	153.694
64	0.50119	10459.2	4854.78	11531	24.899	157.806
65	0.39811	10729.2	5796.05	12194.7	28.3785	162.413
66	0.31623	11051	6916.43	13036.9	32.041	167.65
67	0.25119	11504.3	8284.97	14177.1	35.76	173.532
68	0.19953	11886.9	9956.93	15506.1	39.9508	180.094
69	0.15849	12381.8	11943.1	17203.1	43.967	188.012
70	0.12589	13050	14515.8	19519.5	48.0438	196.784
71	0.1	13814.4	17445	22252.3	51.625	207.611

File: Z_s14_1.4.txt
Index	Frequency (Hz)	Z' (Ω)	-Z'' (Ω)	Z (Ω)	-Phase (°)	Time (s)
1	1000000	3423.33	2598.71	4297.96	37.2027	24.7436
2	794330	3812.45	2359.5	4483.53	31.7531	27.5007
3	630960	4266.27	2195.08	4797.86	27.2267	30.5827
4	501190	4719.51	2040.59	5141.77	23.3824	33.3348
5	398110	5191.18	1873.59	5518.94	19.8454	35.7118
6	316230	5515.11	1718.54	5776.66	17.3073	37.8589
7	251190	5687.43	1492.92	5880.11	14.7081	40.0659
8	199530	5945.44	1350.38	6096.87	12.7964	42.1179
9	158490	6151.09	1201.5	6267.34	11.0525	43.845
10	125890	6318.3	1056.57	6406.04	9.49336	45.692
11	100000	6454.69	921.865	6520.19	8.12807	47.139
12	79433	6562.42	799.295	6610.92	6.94435	48.7011
13	63096	6643.3	689.521	6678.99	5.92562	50.1931
14	50119	6717.53	593.261	6743.68	5.047	51.7401
15	39811	6771.36	508.29	6790.41	4.29283	53.1671
16	31623	6814.31	435.668	6828.23	3.65818	54.6542
17	25119	6851.87	379.933	6862.39	3.17377	56.0362
18	19953	6879.41	331.678	6887.4	2.76027	57.4382
19	15849	6910.53	291.634	6916.69	2.41653	58.8753
20	12589	6934.06	258.568	6938.88	2.13554	60.2823
21	10000	6953.78	232.274	6957.66	1.91311	61.9393
22	7943.3	6974.26	211.326	6977.46	1.73558	63.3713
23	6309.6	6995.85	195.126	6998.57	1.59767	64.9184
24	5011.9	7013.23	182.63	7015.61	1.49169	66.4054
25	3981.1	7033.06	173.656	7035.21	1.41442	68.0274
26	3162.3	7050.78	166.321	7052.74	1.3513	69.4794
27	2511.9	7068.85	162.135	7070.71	1.31394	71.0665
28	1995.3	7085.27	160.428	7087.09	1.29709	72.5885
29	1584.9	7101.62	160.444	7103.43	1.29424	73.8705
30	1258.9	7123.6	163.432	7125.47	1.31427	75.3276
31	1000	7140.94	166.777	7142.89	1.3379	76.7896
32	794.33	7161.8	172.507	7163.88	1.37982	78.4616
33	630.96	7183.83	180.635	7186.1	1.44038	80.1537
34	501.19	7205.97	190.739	7208.49	1.51624	82.3007
35	398.11	7228.29	203.555	7231.16	1.61308	84.0227
36	316.23	7250.83	219.079	7254.14	1.73063	87.2198
37	251.19	7276.13	236.364	7279.97	1.86059	90.8618
38	199.53	7301.73	259.238	7306.33	2.03335	94.9539
39	158.49	7331.13	286.459	7336.73	2.23766	100.451
40	125.89	7362.06	316.185	7368.84	2.45922	105.648
41	100	7397.13	355.874	7405.68	2.75436	108.95
42	79.433	7439.42	396.007	7449.95	3.04703	112.522
43	63.096	7488.87	450.179	7502.39	3.44009	116.469
44	50.119	7548.04	491.678	7564.03	3.72697	119.326
45	39.811	7612.79	556.142	7633.08	4.17825	122.478
46	31.623	7683.7	619.535	7708.63	4.60977	126.441
47	25.119	7766.93	681.507	7796.78	5.01455	130.258
48	19.953	7865.52	758.144	7901.97	5.50563	133.435
49	15.849	7966.25	828.947	8009.26	5.94067	136.137
50	12.589	8079.42	911.548	8130.68	6.43708	139.119
51	10	8199.2	992.262	8259.02	6.90034	142.026
52	7.9433	8322.23	1083.14	8392.42	7.4154	145.078
53	6.3096	8453.12	1186.22	8535.95	7.98808	148.275
54	5.0119	8589.7	1303.28	8688.01	8.62745	152.037
55	3.9811	8742.8	1440.89	8860.74	9.35874	155.769
56	3.1623	8890.17	1599.64	9032.94	10.2003	161.686
57	2.5119	9049.19	1787.74	9224.09	11.1754	165.958
58	1.9953	9221.93	2007.04	9437.81	12.2783	170.56
59	1.5849	9402.17	2280.11	9674.7	13.6316	174.147
60	1.2589	9580.38	2600.85	9927.14	15.1884	178.149
61	1	9789.74	3004.4	10240.4	17.0608	182.257
62	0.79433	10033.4	3488.7	10622.6	19.173	186.064
63	0.63096	10264.7	4057.19	11037.4	21.5667	190.411
64	0.50119	10547.3	4778.35	11579.2	24.3725	195.633
65	0.39811	10834	5672.52	12229.2	27.6359	201.35
66	0.31623	11098.1	6745.17	12987.1	31.2902	207.862
67	0.25119	11537.6	8053.07	14070.1	34.9146	215.444
68	0.19953	11968.5	9696.24	15403.3	39.0126	223.276
69	0.15849	12398.6	11698.2	17046.2	43.335	232.163
70	0.12589	12979.2	14094.3	19160.1	47.3585	242.281
71	0.1	13652.4	17028.6	21825.7	51.2797	253.938

File: Z_s14_1.5.txt
Index	Frequency (Hz)	Z' (Ω)	-Z'' (Ω)	Z (Ω)	-Phase (°)	Time (s)
1	1000000	3299.58	2659.31	4237.83	38.8672	20.8545
2	794330	3739.16	2443.25	4466.63	33.1615	22.3615
3	630960	4205.09	2286.68	4786.61	28.5368	24.2936
4	501190	4675.26	2157.38	5149.01	24.7707	26.1706
5	398110	5177.19	1958.87	5535.38	20.7249	27.8126
6	316230	5521.66	1788.24	5804.01	17.945	29.4097
7	251190	5699.85	1551.1	5907.13	15.2233	32.1737
8	199530	5962.31	1396.46	6123.67	13.1819	33.8508
9	158490	6170.79	1238.33	6293.81	11.3472	35.4078
10	125890	6339.69	1086.6	6432.13	9.7258	36.7548
11	100000	6474.88	944.749	6543.44	8.30144	38.1918
12	79433	6582.46	817.402	6633.02	7.07868	39.5789
13	63096	6669.22	704.469	6706.32	6.02979	41.0359
14	50119	6736.93	604.443	6763.99	5.1269	42.5179
15	39811	6796.62	517.642	6816.3	4.35534	43.9749
16	31623	6835.49	441.379	6849.73	3.69455	45.437
17	25119	6869.76	383.996	6880.48	3.19931	47.014
18	19953	6903.54	334.705	6911.64	2.7757	48.476
19	15849	6928.42	293.605	6934.64	2.42656	50.0031
20	12589	6954.13	260.51	6959.01	2.14536	52.2501
21	10000	6974.48	233.683	6978.39	1.91901	53.8271
22	7943.3	6996.89	211.908	7000.1	1.73473	55.2692
23	6309.6	7015.64	195.51	7018.36	1.59629	56.8162
24	5011.9	7033.44	182.168	7035.8	1.48365	58.2932
25	3981.1	7051.44	171.919	7053.53	1.39663	59.9702
26	3162.3	7069.74	164.837	7071.66	1.33566	61.6373
27	2511.9	7083.76	160.46	7085.58	1.29763	63.3543
28	1995.3	7101.07	158.045	7102.82	1.27499	67.9864
29	1584.9	7116.3	158.079	7118.06	1.27254	70.9184
30	1258.9	7138.21	160.001	7140	1.28405	72.7655
31	1000	7157.25	162.939	7159.11	1.30414	74.5325
32	794.33	7174.91	168.581	7176.89	1.34597	76.7096
33	630.96	7196.56	175.909	7198.71	1.40023	78.4916
34	501.19	7216.52	184.951	7218.89	1.4681	80.3336
35	398.11	7241.3	196.969	7243.98	1.5581	81.9806
36	316.23	7264.05	211.642	7267.13	1.66887	83.7127
37	251.19	7283.62	228.162	7287.19	1.79423	85.6147
38	199.53	7308.81	251.702	7313.15	1.97238	87.3667
39	158.49	7336.06	276.637	7341.28	2.15956	89.2238
40	125.89	7369.94	307.146	7376.34	2.38645	91.2358
41	100	7403.24	340.784	7411.08	2.63557	92.9929
42	79.433	7440.69	384.851	7450.63	2.96084	94.9499
43	63.096	7501.95	426.154	7514.05	3.25123	96.8269
44	50.119	7542.58	494.007	7558.74	3.74728	99.144
45	39.811	7610.88	539.961	7630.01	4.0581	101.066
46	31.623	7677.97	600.681	7701.43	4.47339	103.333
47	25.119	7762.13	660.026	7790.14	4.86026	105.38
48	19.953	7853.65	737.078	7888.17	5.36159	107.662
49	15.849	7954.37	804.737	7994.98	5.77691	110.159
50	12.589	8062.08	879.946	8109.96	6.22896	112.416
51	10	8179.8	967.825	8236.86	6.7478	115.188
52	7.9433	8300.07	1061.63	8367.69	7.28892	118.065
53	6.3096	8427.98	1156.18	8506.91	7.81129	120.947
54	5.0119	8564.57	1273.69	8658.76	8.45883	123.854
55	3.9811	8706.91	1406.77	8819.83	9.17795	126.776
56	3.1623	8855.02	1563.63	8992.01	10.0141	129.754
57	2.5119	9014.78	1747.63	9182.62	10.9714	132.836
58	1.9953	9178.75	1968.87	9387.54	12.1066	136.118
59	1.5849	9360.53	2232.83	9623.15	13.4165	139.51
60	1.2589	9542.26	2548.41	9876.7	14.9527	142.977
61	1	9744.88	2935.22	10177.3	16.7627	149.146
62	0.79433	9967.46	3402.08	10532.1	18.8458	152.678
63	0.63096	10212.4	3968.75	10956.4	21.2372	156.73
64	0.50119	10450.9	4689.14	11454.7	24.1649	161.132
65	0.39811	10730.1	5527.24	12070	27.2538	165.739
66	0.31623	11055.7	6591.26	12871.4	30.8029	170.901
67	0.25119	11370.1	7932.09	13863.5	34.9008	176.753
68	0.19953	11886.8	9491.07	15211	38.6059	183.511
69	0.15849	12362.6	11432.6	16838.6	42.7617	191.033
70	0.12589	12911.6	13785.3	18887.7	46.8744	200.265
71	0.1	13431.2	16805.4	21513.2	51.3674	211.167

File: Z_s14_1.txt
Index	Frequency (Hz)	Z' (Ω)	-Z'' (Ω)	Z (Ω)	-Phase (°)	Time (s)
1	1000000	2823.82	2628.86	3858.09	42.9522	16.2524
2	794330	3313.43	2545.39	4178.25	37.5316	18.0295
3	630960	3925.15	2370.05	4585.19	31.1241	20.6915
4	501190	4432.48	2207.95	4951.96	26.4792	23.7386
5	398110	4932.3	1962.13	5308.25	21.6933	25.6456
6	316230	5256.53	1748.61	5539.74	18.3999	28.2126
7	251190	5411.62	1487.94	5612.45	15.3737	30.7747
8	199530	5641.54	1324.67	5794.98	13.2141	32.7017
9	158490	5828.71	1169.63	5944.9	11.3467	34.7488
10	125890	5978.79	1025.32	6066.07	9.73119	36.8608
11	100000	6099.4	893.788	6164.54	8.33662	38.8128
12	79433	6197.34	776.291	6245.77	7.1398	40.6549
13	63096	6282.78	672.049	6318.62	6.10553	42.4519
14	50119	6351.09	580.069	6377.53	5.21856	44.444
15	39811	6406.72	498.408	6426.08	4.44834	46.306
16	31623	6447.61	428.988	6461.86	3.80653	48.178
17	25119	6485.42	375.047	6496.26	3.30968	49.8701
18	19953	6517.25	328.715	6525.54	2.88742	51.9221
19	15849	6547.8	290.101	6554.22	2.53684	53.7541
20	12589	6573.18	258.767	6578.27	2.25441	56.0212
21	10000	6599.21	233.711	6603.35	2.02828	58.7682
22	7943.3	6617.81	214.638	6621.29	1.85765	61.3303
23	6309.6	6640.1	199.409	6643.09	1.72013	63.7673
24	5011.9	6664.03	188.404	6666.69	1.61942	65.9143
25	3981.1	6683.19	180.966	6685.63	1.55107	68.0264
26	3162.3	6701.5	175.881	6703.81	1.50338	70.0734
27	2511.9	6722.53	174.051	6724.78	1.4831	71.9705
28	1995.3	6744.4	173.709	6746.64	1.47538	74.2925
29	1584.9	6764.08	176.371	6766.38	1.49363	76.0895
30	1258.9	6787.53	182.126	6789.98	1.53702	78.0916
31	1000	6812.2	188.165	6814.8	1.58221	80.0436
32	794.33	6835.04	196.609	6837.87	1.64765	82.1056
33	630.96	6861.02	207.79	6864.17	1.73471	84.2127
34	501.19	6884.72	221.46	6888.28	1.84239	85.8397
35	398.11	6915.12	238.254	6919.22	1.9733	88.1418
36	316.23	6947.21	256.996	6951.96	2.11856	90.1988
37	251.19	6973.58	278.999	6979.16	2.29107	92.2958
38	199.53	7008.76	306.163	7015.44	2.50125	94.0929
39	158.49	7044.76	337.664	7052.84	2.74416	96.1449
40	125.89	7089.67	373.348	7099.49	3.01446	98.4669
41	100	7133.99	414.394	7146.02	3.32442	101.229
42	79.433	7190.77	464.127	7205.73	3.69302	103.541
43	63.096	7258.66	511.368	7276.65	4.02979	105.713
44	50.119	7326.53	580.417	7349.49	4.52958	108.17
45	39.811	7408.62	630.347	7435.39	4.86318	110.797
46	31.623	7491.59	698.169	7524.06	5.32422	114.244
47	25.119	7596.94	761.862	7635.05	5.72678	116.586
48	19.953	7705.97	834.633	7751.04	6.1816	119.068
49	15.849	7823.39	904.251	7875.48	6.59316	121.86
50	12.589	7940.76	983.25	8001.4	7.05862	124.617
51	10	8067.09	1071.21	8137.9	7.5639	127.494
52	7.9433	8203.8	1163.3	8285.87	8.07077	130.277
53	6.3096	8342.81	1260.65	8437.52	8.59274	133.434
54	5.0119	8491.27	1386.22	8603.67	9.27188	136.771
55	3.9811	8646.59	1531.34	8781.15	10.0431	140.073
56	3.1623	8806.13	1700.19	8968.75	10.9276	143.475
57	2.5119	8980.21	1903.12	9179.65	11.9653	146.962
58	1.9953	9158.48	2144.18	9406.13	13.1768	151.029
59	1.5849	9356.3	2440.84	9669.43	14.6213	154.766
60	1.2589	9563.39	2782.22	9959.87	16.221	158.693
61	1	9806.9	3252.65	10332.2	18.3491	163.175
62	0.79433	10057.9	3758.38	10737.1	20.4895	166.962
63	0.63096	10351.3	4399.78	11247.5	23.0278	171.004
64	0.50119	10618.9	5174.08	11812.3	25.9778	175.511
65	0.39811	10937.8	6081.68	12514.8	29.0752	180.223
66	0.31623	11297.8	7233.97	13415.3	32.6314	185.681
67	0.25119	11770	8635.15	14597.9	36.266	191.728
68	0.19953	12213	10271.6	15958.2	40.0653	199.23
69	0.15849	12850.7	12372.5	17838.7	43.9138	207.142
70	0.12589	13496.8	14873.1	20084.2	47.7775	215.964
71	0.1	14264.6	18156	23089.3	51.8445	226.701