Folder: Streamlit_cement/data (part 5)

File: Z_s6_1.5.txt
Index	Frequency (Hz)	Z' (Ω)	-Z'' (Ω)	Z (Ω)	-Phase (°)	Time (s)
1	1000000	3689.03	3282.7	4938.12	41.6644	16.0724
2	794330	4229.23	3013.24	5192.88	35.4691	17.8194
3	630960	4892.7	2803.55	5639.01	29.813	19.5015
4	501190	5470.61	2632.64	6071.11	25.6984	21.5035
5	398110	6139.18	2419.39	6598.71	21.509	23.1905
6	316230	6565.48	2207.68	6926.71	18.5855	24.9676
7	251190	6790.17	1911.5	7054.1	15.7225	28.0116
8	199530	7113.65	1719.28	7318.47	13.5871	29.7487
9	158490	7367.36	1524.12	7523.36	11.6882	31.4257
10	125890	7572.73	1337.06	7689.86	10.0131	33.2877
11	100000	7739.52	1163.55	7826.49	8.54972	35.1498
12	79433	7874.6	1007.6	7938.81	7.29168	36.9218
13	63096	7981.99	868.146	8029.06	6.20727	38.5988
14	50119	8066.42	744.392	8100.69	5.27248	40.3359
15	39811	8137.78	635.99	8162.6	4.46874	42.0029
16	31623	8184.92	542.176	8202.86	3.78978	43.7749
17	25119	8231.7	470.632	8245.15	3.27222	45.422
18	19953	8268.32	408.092	8278.39	2.8256	47.289
19	15849	8303.12	355.334	8310.72	2.45049	48.856
20	12589	8328.55	312.167	8334.4	2.14653	50.6881
21	10000	8359.47	275.916	8364.02	1.89044	52.2251
22	7943.3	8378.47	246.784	8382.1	1.68713	54.1321
23	6309.6	8405.46	223.422	8408.43	1.52259	55.7741
24	5011.9	8424.66	203.366	8427.12	1.38281	57.6212
25	3981.1	8444.06	187.01	8446.13	1.26872	59.3832
26	3162.3	8458.92	174.535	8460.72	1.18203	61.0802
27	2511.9	8481.69	163.861	8483.27	1.10678	62.7373
28	1995.3	8495.74	156.237	8497.17	1.05356	64.3993
29	1584.9	8514.87	150.784	8516.21	1.01451	66.0063
30	1258.9	8532.33	146.544	8533.59	0.983968	67.5884
31	1000	8545.29	146.024	8546.54	0.978991	69.5254
32	794.33	8558.07	147.19	8559.33	0.985333	71.1574
33	630.96	8577.68	150.627	8579.01	1.00603	72.8895
34	501.19	8592.34	155.876	8593.76	1.0393	74.5315
35	398.11	8611.06	164.596	8612.64	1.09504	76.2435
36	316.23	8629.73	175.541	8631.52	1.16532	77.8706
37	251.19	8650.57	191.438	8652.69	1.26775	79.7726
38	199.53	8668.22	207.336	8670.7	1.3702	81.3546
39	158.49	8691.33	228.072	8694.33	1.50317	83.2667
40	125.89	8719.14	250.237	8722.73	1.64393	85.0037
41	100	8740.33	278.115	8744.76	1.82252	86.9907
42	79.433	8779.42	308.818	8784.85	2.01456	88.8928
43	63.096	8831.02	339.714	8837.55	2.20298	90.7248
44	50.119	8846.88	386.699	8855.33	2.50282	93.5068
45	39.811	8905.47	420.23	8915.37	2.70166	95.2989
46	31.623	8964.24	456.623	8975.86	2.91603	97.1959
47	25.119	9020.2	515.801	9034.94	3.27278	98.8879
48	19.953	9072.88	570.174	9090.78	3.59595	100.855
49	15.849	9134.01	634.602	9156.03	3.97434	103.957
50	12.589	9209.63	705.948	9236.65	4.38334	105.969
51	10	9290.14	790.809	9323.73	4.86549	108.616
52	7.9433	9374.93	888.871	9416.98	5.41623	111.133
53	6.3096	9461.13	998.041	9513.63	6.02177	114.345
54	5.0119	9556.16	1134.34	9623.25	6.76945	117.042
55	3.9811	9669.43	1292.04	9755.37	7.61083	119.634
56	3.1623	9788.98	1478.28	9899.97	8.58764	122.611
57	2.5119	9922.88	1697.73	10067.1	9.70888	125.143
58	1.9953	10057.3	1963.45	10247.2	11.0467	127.99
59	1.5849	10227.5	2278.29	10478.2	12.5583	131.108
60	1.2589	10388.6	2643.49	10719.6	14.2766	134.565
61	1	10592.2	3105.61	11038.1	16.3409	140.559
62	0.79433	10810.7	3664.48	11414.9	18.725	144.306
63	0.63096	11056.8	4322.79	11871.8	21.3537	148.153
64	0.50119	11287.2	5104.86	12387.9	24.3358	152.555
65	0.39811	11616.2	6135.15	13136.9	27.8409	157.097
66	0.31623	11936.2	7363.48	14024.8	31.6705	162.424
67	0.25119	12359.4	8818.23	15182.7	35.5073	168.486
68	0.19953	12735	10590.1	16562.9	39.746	176.163
69	0.15849	13329.1	12929.6	18569.9	44.1284	184.876
70	0.12589	13937.8	15639.2	20948.7	48.2922	194.453
71	0.1	14555.9	19010.1	23942.8	52.559	207.06

File: Z_s6_1.txt
Index	Frequency (Hz)	Z' (Ω)	-Z'' (Ω)	Z (Ω)	-Phase (°)	Time (s)
1	1000000	3907.91	3041.8	4952.21	37.8961	24.2826
2	794330	4018.95	2636.99	4806.83	33.2705	26.0846
3	630960	4890.68	2485.98	5486.25	26.9447	27.8116
4	501190	5399.39	2325.76	5878.99	23.3037	29.8837
5	398110	5966.38	2131.37	6335.64	19.6582	32.1507
6	316230	6329.7	1961.8	6626.74	17.2201	34.1228
7	251190	6523.63	1716.64	6745.71	14.7427	36.2748
8	199530	6820.14	1567.1	6997.86	12.9405	38.4768
9	158490	7065.02	1411.01	7204.54	11.2944	40.3939
10	125890	7268.74	1256.24	7376.5	9.80541	42.8809
11	100000	7436.9	1109.1	7519.14	8.48225	45.128
12	79433	7576.54	972.396	7638.69	7.31353	47.48
13	63096	7689.23	846.848	7735.72	6.2849	49.392
14	50119	7781.19	734.131	7815.75	5.38972	51.6791
15	39811	7855.88	631.31	7881.21	4.5945	53.5461
16	31623	7910.62	541.313	7929.12	3.91457	55.5131
17	25119	7957.81	471.557	7971.77	3.39122	57.4002
18	19953	8000.31	410.443	8010.83	2.9369	59.5672
19	15849	8033.57	358.196	8041.55	2.55298	62.1943
20	12589	8072.39	315.238	8078.55	2.23635	64.1213
21	10000	8096.12	279.088	8100.93	1.97431	66.2533
22	7943.3	8123.91	250.11	8127.76	1.7634	68.1454
23	6309.6	8141.02	225.86	8144.15	1.58917	70.4774
24	5011.9	8165.99	206.458	8168.6	1.44828	72.4445
25	3981.1	8182.97	190.574	8185.19	1.33412	74.1315
26	3162.3	8203.05	178.541	8204.99	1.24686	76.2235
27	2511.9	8221.12	169.167	8222.86	1.17881	78.2056
28	1995.3	8237.82	162.38	8239.42	1.12924	80.4576
29	1584.9	8257.1	158.074	8258.61	1.09674	82.3096
30	1258.9	8273.94	157.425	8275.44	1.09001	84.3567
31	1000	8290.17	157.918	8291.68	1.09129	86.5637
32	794.33	8311.23	161.319	8312.8	1.11196	88.7808
33	630.96	8327.34	167.597	8329.02	1.15299	91.1478
34	501.19	8345.53	176.549	8347.4	1.2119	94.0599
35	398.11	8363.04	188.826	8365.17	1.29344	95.6769
36	316.23	8387.27	204.03	8389.75	1.39351	98.1189
37	251.19	8414.51	222.686	8417.45	1.51595	100.061
38	199.53	8435.96	244.81	8439.52	1.66225	102.138
39	158.49	8465.42	270.91	8469.76	1.83295	103.96
40	125.89	8498.58	301.943	8503.94	2.03479	105.852
41	100	8535.31	332.855	8541.79	2.23326	107.854
42	79.433	8575.65	370.424	8583.65	2.47335	109.666
43	63.096	8613.79	419.004	8623.97	2.78487	112.228
44	50.119	8672.21	445.248	8683.63	2.93909	115.165
45	39.811	8738.23	503.701	8752.74	3.29907	116.997
46	31.623	8790.98	556.884	8808.61	3.62468	120.646
47	25.119	8878.99	611.603	8900.03	3.94043	122.983
48	19.953	8941.63	674.232	8967.02	4.31215	125.435
49	15.849	9025.51	747.082	9056.38	4.73184	128.072
50	12.589	9111.44	829.203	9149.09	5.19998	131.31
51	10	9194.72	923.135	9240.95	5.73319	134.397
52	7.9433	9302.32	1036.55	9359.9	6.35819	137.394
53	6.3096	9409.84	1160.05	9481.07	7.02797	140.506
54	5.0119	9518.42	1319.24	9609.41	7.89082	144.148
55	3.9811	9642.62	1506.43	9759.58	8.87933	147.46
56	3.1623	9775.42	1725.21	9926.49	10.0087	150.507
57	2.5119	9927.42	1989.44	10124.8	11.3319	153.774
58	1.9953	10096.9	2295.25	10354.5	12.8069	157.241
59	1.5849	10282.1	2675.21	10624.5	14.5839	161.768
60	1.2589	10475.3	3129.33	10932.7	16.6327	165.435
61	1	10702.7	3669.71	11314.3	18.9257	169.562
62	0.79433	10974.7	4325.7	11796.4	21.512	173.634
63	0.63096	11259.9	5115.87	12367.6	24.4344	178.166
64	0.50119	11594.9	6068.99	13087.2	27.6284	182.403
65	0.39811	11967.7	7281.4	14008.8	31.3172	187.666
66	0.31623	12376.5	8739	15150.8	35.2259	192.988
67	0.25119	12915.7	10461.1	16620.7	39.0058	199.04
68	0.19953	13425	12615.7	18422.5	43.22	205.937
69	0.15849	14100.2	15129.4	20681.3	47.0166	214.039
70	0.12589	14938.1	18211.7	23554.5	50.6399	223.771
71	0.1	15758.6	22067.1	27116.2	54.4685	246.191

File: Z_s7_1.2.txt
Index	Frequency (Hz)	Z' (Ω)	-Z'' (Ω)	Z (Ω)	-Phase (°)	Time (s)
1	1000000	2861.13	2017.64	3500.99	35.1911	24.8036
2	794330	3150.8	1858.91	3658.29	30.5397	26.9956
3	630960	3490.35	1727.55	3894.48	26.3331	29.4377
4	501190	3824.66	1625.62	4155.8	23.0272	31.7747
5	398110	4167.76	1486.01	4424.75	19.6237	34.3168
6	316230	4422.46	1374.42	4631.11	17.2643	36.9838
7	251190	4558.08	1204.94	4714.65	14.8075	38.8408
8	199530	4771.1	1104.37	4897.24	13.0328	40.7079
9	158490	4944.19	996.442	5043.6	11.3946	42.4749
10	125890	5085.41	889.415	5162.6	9.92044	44.3369
11	100000	5209.85	787.588	5269.04	8.59649	46.294
12	79433	5305.05	691.938	5349.98	7.43114	48.016
13	63096	5390.72	604.541	5424.51	6.3987	49.783
14	50119	5454.49	525.358	5479.74	5.50156	51.4801
15	39811	5509.97	454.217	5528.66	4.71255	53.0471
16	31623	5553.1	391.74	5566.9	4.03521	55.9242
17	25119	5589.23	341.611	5599.66	3.49754	58.0462
18	19953	5619.7	298.231	5627.61	3.03778	60.0182
19	15849	5646.32	261.567	5652.38	2.65234	61.8203
20	12589	5667.9	230.861	5672.6	2.33244	63.6773
21	10000	5687.7	205.759	5691.42	2.07184	65.5893
22	7943.3	5708.39	185.418	5711.4	1.86041	67.2664
23	6309.6	5724.66	168.795	5727.15	1.68891	68.9934
24	5011.9	5743.11	155.852	5745.23	1.55446	70.7254
25	3981.1	5758.7	145.581	5760.54	1.44814	72.5075
26	3162.3	5769.58	137.587	5771.22	1.36607	74.2095
27	2511.9	5785.49	131.854	5786.99	1.30557	75.9765
28	1995.3	5801.3	128.495	5802.73	1.26886	77.6536
29	1584.9	5815.62	126.792	5817	1.24896	79.2306
30	1258.9	5829.47	126.172	5830.84	1.23991	81.0876
31	1000	5843.57	128.081	5844.97	1.25563	82.7747
32	794.33	5858.82	131.154	5860.29	1.28239	84.6917
33	630.96	5876.33	136.436	5877.91	1.33005	86.3387
34	501.19	5893.52	142.462	5895.24	1.38472	88.2408
35	398.11	5910.73	150.953	5912.66	1.46295	89.8078
36	316.23	5931.67	160.983	5933.86	1.5546	91.6548
37	251.19	5949.75	172.126	5952.24	1.65711	93.3219
38	199.53	5970.54	185.487	5973.42	1.77944	95.1139
39	158.49	5993.56	200.286	5996.9	1.91393	96.9859
40	125.89	6017.6	217.594	6021.53	2.07089	98.943
41	100	6044.68	236.082	6049.28	2.23662	100.65
42	79.433	6074.59	258.365	6080.09	2.43544	102.477
43	63.096	6104.03	282.075	6110.54	2.64583	104.349
44	50.119	6143.05	308.615	6150.8	2.87601	106.661
45	39.811	6176.67	343.193	6186.2	3.18025	108.958
46	31.623	6222.5	379.303	6234.05	3.48824	111.14
47	25.119	6265.47	419.135	6279.47	3.82716	113.192
48	19.953	6313.27	470.352	6330.77	4.26078	115.499
49	15.849	6362.73	525.215	6384.37	4.71881	118.111
50	12.589	6424.94	589.011	6451.88	5.23799	120.543
51	10	6486.28	661.82	6519.96	5.82594	123.375
52	7.9433	6553.03	747.906	6595.58	6.51107	126.352
53	6.3096	6631.78	846.695	6685.61	7.27573	129.32
54	5.0119	6713.16	966.393	6782.37	8.19173	132.312
55	3.9811	6805.05	1104.63	6894.12	9.22009	135.044
56	3.1623	6905.11	1267.92	7020.55	10.4048	137.886
57	2.5119	7017.12	1463.4	7168.09	11.78	141.098
58	1.9953	7143.53	1696.84	7342.3	13.3621	144.365
59	1.5849	7281.45	1976.27	7544.87	15.1849	147.807
60	1.2589	7430.08	2307.38	7780.11	17.252	151.414
61	1	7614.04	2706.59	8080.8	19.569	155.511
62	0.79433	7818.87	3190.32	8444.7	22.1968	159.318
63	0.63096	8056.28	3768.31	8894.03	25.0678	163.61
64	0.50119	8295.86	4463.86	9420.58	28.284	167.792
65	0.39811	8603.15	5309.41	10109.6	31.6807	172.659
66	0.31623	8930.48	6350.92	10958.4	35.4186	177.981
67	0.25119	9374.03	7577.03	12053.4	38.9486	183.964
68	0.19953	9767.24	9086.49	13340.3	42.9321	190.961
69	0.15849	10310.1	10864.2	14977.7	46.499	198.828
70	0.12589	10931.1	13130	17084.7	50.2214	207.785
71	0.1	11814	15799.2	19727.8	53.2123	218.377

File: Z_s7_1.3.txt
Index	Frequency (Hz)	Z' (Ω)	-Z'' (Ω)	Z (Ω)	-Phase (°)	Time (s)
1	1000000	2845.36	2174.02	3580.85	37.3819	27.0806
2	794330	3182.69	2012.53	3765.6	32.3066	29.3327
3	630960	3589.13	1895.93	4059.12	27.845	31.5297
4	501190	3947.78	1781.56	4331.16	24.2887	35.8818
5	398110	4343.75	1634.14	4640.97	20.6166	38.4738
6	316230	4625.04	1514.91	4866.82	18.136	40.3059
7	251190	4782.09	1336.18	4965.26	15.6111	42.1829
8	199530	5014.21	1221.39	5160.83	13.6898	43.9949
9	158490	5205.08	1099.98	5320.03	11.9327	45.527
10	125890	5362.97	979.629	5451.71	10.3518	51.0391
11	100000	5493.72	864.504	5561.32	8.94286	53.3661
12	79433	5602.12	758.191	5653.19	7.70759	55.4331
13	63096	5687.8	660.661	5726.04	6.62545	57.6002
14	50119	5761.58	573.444	5790.05	5.68387	59.3422
15	39811	5820.13	494.943	5841.14	4.86073	61.9143
16	31623	5867.71	427.143	5883.24	4.16353	64.1213
17	25119	5905.4	372.317	5917.13	3.60754	67.5184
18	19953	5937.54	324.725	5946.41	3.1304	69.2304
19	15849	5968.69	284.285	5975.45	2.72691	70.8074
20	12589	5991.24	250.596	5996.48	2.39512	72.3695
21	10000	6013.32	222.726	6017.44	2.12119	73.9815
22	7943.3	6034.42	200.425	6037.74	1.9023	75.8785
23	6309.6	6055.77	182.178	6058.51	1.72313	77.3455
24	5011.9	6071.83	166.998	6074.12	1.57545	78.7876
25	3981.1	6089.7	155.24	6091.68	1.46028	80.2846
26	3162.3	6103.97	146.552	6105.73	1.37537	81.7066
27	2511.9	6120.24	139.799	6121.84	1.30853	83.2737
28	1995.3	6136.41	135.023	6137.89	1.26051	84.8407
29	1584.9	6151.83	132.353	6153.25	1.2325	86.2077
30	1258.9	6165.16	131.229	6166.56	1.21938	87.9097
31	1000	6180.95	132.72	6182.37	1.23009	89.8768
32	794.33	6197.77	135.813	6199.26	1.25533	91.8988
33	630.96	6215.11	140.218	6216.69	1.29242	93.8859
34	501.19	6233.19	146.138	6234.91	1.34306	95.7729
35	398.11	6251.23	154.194	6253.13	1.41298	97.7249
36	316.23	6269.82	163.62	6271.96	1.49488	99.857
37	251.19	6291	175.948	6293.46	1.60204	101.729
38	199.53	6314.2	189.773	6317.05	1.7215	103.441
39	158.49	6335.91	204.451	6339.2	1.84822	105.338
40	125.89	6360.01	222.152	6363.89	2.0005	107.15
41	100	6386.56	241.806	6391.14	2.16828	109.217
42	79.433	6416.03	262.364	6421.39	2.34164	110.944
43	63.096	6446.19	290.008	6452.71	2.57595	112.836
44	50.119	6481.11	318.742	6488.94	2.81555	114.838
45	39.811	6525.03	349.521	6534.39	3.06618	116.915
46	31.623	6568.17	382.745	6579.32	3.335	119.007
47	25.119	6616.14	425.482	6629.81	3.67961	121.119
48	19.953	6662.06	476.906	6679.11	4.09455	123.651
49	15.849	6714.04	532.203	6735.1	4.5322	125.958
50	12.589	6780.78	595.981	6806.92	5.02298	128.465
51	10	6844.8	669.119	6877.43	5.58326	131.408
52	7.9433	6912.93	754.24	6953.96	6.22666	134.155
53	6.3096	6994.98	854.247	7046.95	6.96265	136.952
54	5.0119	7074.9	970.978	7141.22	7.81461	139.844
55	3.9811	7170.64	1108.15	7255.76	8.785	142.896
56	3.1623	7273.82	1271.61	7384.13	9.91628	145.978
57	2.5119	7391.26	1464.48	7534.95	11.2072	149.265
58	1.9953	7518.48	1692.52	7706.63	12.6866	152.122
59	1.5849	7661.69	1965.14	7909.69	14.3856	155.124
60	1.2589	7803.4	2290.29	8132.56	16.3569	158.361
61	1	7998.33	2691.02	8438.89	18.5954	164.235
62	0.79433	8210.37	3163.7	8798.82	21.0731	167.832
63	0.63096	8435.27	3736.29	9225.7	23.8903	171.959
64	0.50119	8674.17	4423.27	9736.86	27.0187	176.176
65	0.39811	8986.28	5259.41	10412.2	30.3392	180.948
66	0.31623	9301.91	6300.3	11234.7	34.1103	186.381
67	0.25119	9717.57	7473.22	12258.9	37.5618	192.013
68	0.19953	10222.2	9000.3	13619.8	41.3627	198.47
69	0.15849	10766.9	10800.2	15250.2	45.0885	206.097
70	0.12589	11408.1	12950.2	17258.4	48.6227	215.294
71	0.1	12014.4	15537.6	19640.9	52.2871	226.131

File: Z_s7_1.4.txt
Index	Frequency (Hz)	Z' (Ω)	-Z'' (Ω)	Z (Ω)	-Phase (°)	Time (s)
1	1000000	2857.85	2032.48	3506.89	35.4201	22.4685
2	794330	3157.59	1868.92	3669.23	30.6205	24.4006
3	630960	3501.45	1738.65	3909.35	26.4068	26.3226
4	501190	3826.97	1634.13	4161.26	23.1227	28.3696
5	398110	4184.21	1488.73	4441.16	19.5854	30.2767
6	316230	4441.38	1373.33	4648.86	17.1822	31.9787
7	251190	4576.27	1194.67	4729.64	14.6309	33.7907
8	199530	4784.97	1088.26	4907.16	12.8129	35.6678
9	158490	4952.18	976.187	5047.48	11.1513	37.7748
10	125890	5090.68	866.514	5163.9	9.66007	39.5968
11	100000	5202.35	762.869	5257.98	8.34237	41.4939
12	79433	5297.87	667.703	5339.78	7.18326	43.4559
13	63096	5374.89	581.827	5406.29	6.17816	45.398
14	50119	5435.21	504.343	5458.56	5.3014	47.505
15	39811	5488.38	435.997	5505.67	4.54204	49.362
16	31623	5525.07	375.889	5537.84	3.89203	51.4391
17	25119	5559.45	328.014	5569.12	3.37661	53.3611
18	19953	5589.74	286.738	5597.09	2.93654	55.3831
19	15849	5614.63	252.084	5620.29	2.57072	57.2652
20	12589	5633.94	222.863	5638.35	2.26528	59.2022
21	10000	5655.35	198.796	5658.84	2.01322	61.0892
22	7943.3	5674.53	179.696	5677.37	1.81379	63.1013
23	6309.6	5691.24	163.682	5693.6	1.64739	64.8133
24	5011.9	5707	150.774	5708.99	1.51335	66.6804
25	3981.1	5722.36	140.604	5724.08	1.40753	68.3224
26	3162.3	5735.86	133.056	5737.4	1.32887	70.1244
27	2511.9	5751.76	127.535	5753.18	1.27022	71.7264
28	1995.3	5764.03	123.591	5765.36	1.22833	73.6085
29	1584.9	5777.03	121.519	5778.31	1.20503	75.3055
30	1258.9	5793.98	121.049	5795.25	1.19686	77.3175
31	1000	5808.05	122.869	5809.35	1.21191	79.1046
32	794.33	5823.28	125.482	5824.64	1.23444	81.2366
33	630.96	5835.58	129.681	5837.02	1.27304	83.0087
34	501.19	5854.16	135.754	5855.74	1.32842	85.0057
35	398.11	5871.2	143.539	5872.96	1.40049	86.6227
36	316.23	5885.35	152.148	5887.31	1.48088	88.5648
37	251.19	5906.08	163.723	5908.34	1.58789	90.4468
38	199.53	5925.12	176.398	5927.75	1.70526	92.3889
39	158.49	5945.25	190.143	5948.29	1.83183	94.1159
40	125.89	5969.6	206.858	5973.18	1.98461	96.1379
41	100	5994.19	224.714	5998.4	2.14694	97.8449
42	79.433	6023.52	245.455	6028.51	2.33348	99.817
43	63.096	6052.09	265.984	6057.93	2.51648	101.659
44	50.119	6088	298.83	6095.33	2.81012	103.911
45	39.811	6120.39	325.132	6129.02	3.04085	105.938
46	31.623	6158.31	360.38	6168.85	3.34909	108.22
47	25.119	6202.06	399.045	6214.89	3.68137	111.012
48	19.953	6250.62	445.172	6266.45	4.07375	113.134
49	15.849	6303.94	496.299	6323.45	4.50152	115.706
50	12.589	6355.66	556.193	6379.95	5.00129	118.338
51	10	6414.9	625.312	6445.31	5.56749	121.03
52	7.9433	6481.83	702.579	6519.79	6.18626	123.842
53	6.3096	6553.31	796.605	6601.55	6.93073	126.894
54	5.0119	6633.8	908.333	6695.7	7.79674	130.177
55	3.9811	6716.9	1036.25	6796.37	8.77019	133.124
56	3.1623	6815.62	1188.67	6918.49	9.89308	136.071
57	2.5119	6921.7	1370.41	7056.06	11.199	139.893
58	1.9953	7034.35	1585.11	7210.73	12.6988	142.7
59	1.5849	7165.51	1840.44	7398.09	14.4049	145.782
60	1.2589	7302.46	2148.2	7611.88	16.3925	148.929
61	1	7466.93	2518.32	7880.16	18.6374	152.381
62	0.79433	7660.3	2968.63	8215.41	21.183	156.013
63	0.63096	7875.31	3479.98	8609.92	23.8399	160.545
64	0.50119	8093.16	4129.73	9085.92	27.034	164.537
65	0.39811	8383.72	4915.25	9718.36	30.3825	168.894
66	0.31623	8693.77	5863.53	10486.3	33.9978	174.096
67	0.25119	9057.11	7020.93	11459.7	37.7823	180.273
68	0.19953	9518.5	8484.57	12751.1	41.7131	187.101
69	0.15849	9978.27	10197.6	14267.3	45.6227	195.003
70	0.12589	10588.3	12275.7	16211.3	49.2208	204.22
71	0.1	11302.6	14650.7	18503.8	52.3508	214.907

File: Z_s7_1.5.txt
Index	Frequency (Hz)	Z' (Ω)	-Z'' (Ω)	Z (Ω)	-Phase (°)	Time (s)
1	1000000	2870.52	2273.3	3661.67	38.3773	14.7954
2	794330	3247.12	2116.62	3876.06	33.0981	16.5474
3	630960	3651.17	2004.77	4165.35	28.7702	18.2095
4	501190	4055.23	1896.86	4476.94	25.0682	20.2115
5	398110	4468.5	1741.27	4795.78	21.2897	21.8385
6	316230	4772.21	1609.03	5036.17	18.6324	23.6756
7	251190	4940.7	1410.22	5138.02	15.9302	25.2426
8	199530	5181.03	1284.53	5337.89	13.9246	27.1046
9	158490	5381.54	1154.55	5504	12.1086	28.7167
10	125890	5545.08	1025.15	5639.05	10.4743	30.5087
11	100000	5677.89	902.814	5749.22	9.03469	32.1257
12	79433	5788.4	790.386	5842.11	7.77546	33.9378
13	63096	5876.46	688.077	5916.61	6.67837	35.5998
14	50119	5949.95	596.399	5979.76	5.72398	37.3868
15	39811	6010.83	514.664	6032.82	4.89389	39.1339
16	31623	6056.53	443.426	6072.74	4.18741	40.8709
17	25119	6095.54	386.747	6107.8	3.63041	42.5779
18	19953	6132.01	337.315	6141.28	3.1486	44.2499
19	15849	6158.23	295.242	6165.3	2.74481	45.947
20	12589	6186.1	260.457	6191.58	2.41094	47.459
21	10000	6208.9	231.554	6213.22	2.13579	49.301
22	7943.3	6229.85	207.775	6233.32	1.91019	50.8031
23	6309.6	6243.6	188.196	6246.44	1.7265	52.6101
24	5011.9	6261.44	172.343	6263.82	1.57664	54.1321
25	3981.1	6280.84	159.647	6282.87	1.45603	55.8892
26	3162.3	6295.32	150.391	6297.12	1.3685	57.5362
27	2511.9	6312.04	142.423	6313.65	1.29258	59.3032
28	1995.3	6321.67	137.082	6323.16	1.24223	61.2003
29	1584.9	6336.56	133.82	6337.97	1.20983	62.6823
30	1258.9	6352.71	132.471	6354.09	1.1946	64.0643
31	1000	6369.88	133.309	6371.27	1.19891	65.5313
32	794.33	6383.25	135.701	6384.69	1.21786	67.1534
33	630.96	6398.07	139.631	6399.59	1.25022	68.5754
34	501.19	6414.11	146.155	6415.77	1.30534	71.3874
35	398.11	6429.9	153.04	6431.72	1.36345	73.8145
36	316.23	6450.55	162.879	6452.6	1.44643	75.8365
37	251.19	6468.96	174.691	6471.32	1.54687	77.6336
38	199.53	6487.79	187.941	6490.51	1.65931	79.0706
39	158.49	6512.79	202.719	6515.95	1.78283	80.4826
40	125.89	6535.99	218.55	6539.64	1.91514	82.1996
41	100	6560.02	239.654	6564.4	2.09223	83.7167
42	79.433	6586.22	259.87	6591.35	2.25953	85.2587
43	63.096	6611.91	284.649	6618.03	2.46511	86.9207
44	50.119	6646.69	313.984	6654.1	2.7046	89.1678
45	39.811	6688.61	344.797	6697.49	2.95098	90.9648
46	31.623	6729.82	378.554	6740.46	3.2195	92.6918
47	25.119	6776.44	420.251	6789.46	3.54873	94.3889
48	19.953	6824.66	470.44	6840.86	3.94329	97.4309
49	15.849	6874.94	524.997	6894.96	4.36685	99.493
50	12.589	6937.15	588.168	6962.04	4.84625	101.565
51	10	6997.86	657.463	7028.68	5.3673	104.017
52	7.9433	7064.37	740.112	7103.03	5.98088	106.379
53	6.3096	7141.75	838.467	7190.8	6.69608	108.771
54	5.0119	7224.45	951.004	7286.78	7.49912	111.223
55	3.9811	7317.39	1081.94	7396.94	8.41073	113.88
56	3.1623	7415.14	1242.73	7518.56	9.51401	116.517
57	2.5119	7528.32	1428.95	7662.74	10.7474	119.419
58	1.9953	7644.21	1649.88	7820.23	12.1796	122.576
59	1.5849	7788.09	1914.7	8020	13.8122	125.868
60	1.2589	7931.46	2228.98	8238.72	15.697	129.236
61	1	8109.75	2612.39	8520.13	17.8553	134.715
62	0.79433	8320.61	3069.96	8868.89	20.252	138.107
63	0.63096	8533.8	3615.69	9268.17	22.9619	142.094
64	0.50119	8756.04	4287.34	9749.34	26.0884	146.186
65	0.39811	9032.33	5060.08	10353.1	29.2583	150.743
66	0.31623	9386.27	6041.09	11162.3	32.7657	156.055
67	0.25119	9704.4	7240.89	12108.1	36.7283	161.942
68	0.19953	10175.7	8625.71	13339.7	40.2871	168.429
69	0.15849	10709.5	10335.5	14883.4	43.9818	176.121
70	0.12589	11206.1	12470	16765.4	48.0555	184.929
71	0.1	11967.2	15111.8	19276.4	51.6239	195.611

File: Z_s7_1.txt
Index	Frequency (Hz)	Z' (Ω)	-Z'' (Ω)	Z (Ω)	-Phase (°)	Time (s)
1	1000000	2463.83	2129.84	3256.79	40.8416	45.395
2	794330	2836.23	1957.21	3445.99	34.6086	47.732
3	630960	3280.44	1946.97	3814.71	30.6895	50.1341
4	501190	3680.93	1834.19	4112.6	26.4868	52.1361
5	398110	4063.74	1659.05	4389.35	22.2081	54.2731
6	316230	4335.26	1522.72	4594.9	19.3533	56.0152
7	251190	4483.94	1338.11	4679.34	16.6163	58.1122
8	199530	4703.19	1234.14	4862.41	14.7032	59.9792
9	158490	4890.55	1128.39	5019.04	12.9924	62.1063
10	125890	5053.63	1023.22	5156.18	11.4461	64.7183
11	100000	5198.92	920.079	5279.71	10.036	66.8754
12	79433	5321.03	817.797	5383.51	8.73751	68.9474
13	63096	5424.71	720.877	5472.4	7.56955	70.8944
14	50119	5513.19	629.202	5548.98	6.5108	72.6115
15	39811	5584.5	544.419	5610.97	5.56803	74.6785
16	31623	5639.94	468.535	5659.37	4.74892	76.5505
17	25119	5680.43	405.305	5694.87	4.0812	78.6326
18	19953	5719.17	351.493	5729.96	3.5169	80.3196
19	15849	5749.45	305.437	5757.55	3.04095	82.4617
20	12589	5775.31	267.971	5781.52	2.65659	84.2337
21	10000	5795	237.197	5799.86	2.34388	86.1157
22	7943.3	5816.16	212.604	5820.04	2.09345	87.9328
23	6309.6	5834.31	192.925	5837.5	1.89393	90.1848
24	5011.9	5852.62	177.553	5855.31	1.73767	91.8768
25	3981.1	5869.75	166.113	5872.1	1.62103	93.8189
26	3162.3	5885.83	157.811	5887.95	1.53585	95.5859
27	2511.9	5902.96	152.213	5904.92	1.47709	97.5079
28	1995.3	5919.17	149.187	5921.05	1.44378	99.175
29	1584.9	5933.63	148.469	5935.48	1.43334	101.212
30	1258.9	5951.99	149.072	5953.86	1.43471	102.754
31	1000	5969.01	152.98	5970.97	1.46811	105.136
32	794.33	5985.82	157.858	5987.9	1.51065	107.043
33	630.96	6009.61	165.601	6011.89	1.57844	109.11
34	501.19	6028.48	174.107	6030.99	1.65428	111.462
35	398.11	6050.8	184.494	6053.62	1.74646	113.129
36	316.23	6072.13	198.134	6075.36	1.8689	114.936
37	251.19	6098.73	212.741	6102.44	1.99783	116.803
38	199.53	6123.09	230.095	6127.41	2.15207	118.825
39	158.49	6154.58	249.25	6159.62	2.31911	120.517
40	125.89	6184.95	270.995	6190.88	2.50883	122.844
41	100	6215.83	294.5	6222.8	2.71259	124.666
42	79.433	6253.74	322.231	6262.03	2.94962	126.643
43	63.096	6292.66	358.219	6302.85	3.25813	128.901
44	50.119	6334.68	384.977	6346.37	3.47775	131.243
45	39.811	6380.79	429.604	6395.23	3.85178	133.41
46	31.623	6431.97	476.888	6449.62	4.24034	135.477
47	25.119	6486.8	526.717	6508.15	4.64213	137.869
48	19.953	6543.54	592.496	6570.31	5.17383	140.956
49	15.849	6613.34	663.523	6646.54	5.72937	143.953
50	12.589	6681.35	747.151	6723	6.38067	146.78
51	10	6760.08	844.385	6812.61	7.1198	149.557
52	7.9433	6847.46	959.786	6914.4	7.97898	152.659
53	6.3096	6940.77	1095.61	7026.71	8.97022	155.741
54	5.0119	7046.64	1249.24	7156.52	10.0531	159.048
55	3.9811	7163.16	1436.92	7305.86	11.3429	162.635
56	3.1623	7293.93	1656.21	7479.6	12.793	166.037
57	2.5119	7438.9	1918.71	7682.36	14.463	169.319
58	1.9953	7603.64	2225.06	7922.51	16.3111	172.336
59	1.5849	7792.43	2600.69	8214.96	18.4562	175.578
60	1.2589	8001.78	3036.33	8558.49	20.7796	179.075
61	1	8235.36	3571.28	8976.37	23.4441	183.063
62	0.79433	8508.29	4198.58	9487.84	26.2649	187.075
63	0.63096	8819.72	4955.47	10116.5	29.33	191.302
64	0.50119	9178.11	5864.92	10892	32.5791	195.869
65	0.39811	9584.89	6968.75	11850.5	36.0192	200.781
66	0.31623	10061.4	8303.6	13045.4	39.5326	206.008
67	0.25119	10609.9	9903.37	14513.7	43.0274	212.41
68	0.19953	11244	11896	16369	46.6141	219.037
69	0.15849	11965	14229	18591	49.9399	226.819
70	0.12589	12883.7	17053.9	21373.5	52.9302	236.207
71	0.1	14077.8	20478	24850.3	55.493	247.169